Folder: data-visualizer/UV-Vis data/2024_09 (part 4)

File: 2024_09_11_imine polymer t=3hrs FeCl3 solution doping.csv
t=3hrs FeCl3 0uM,,t=3hrs FeCl3 5uM,,t=3hrs FeCl3 20uM,,t=3hrs FeCl3 50uM,,t=3hrs FeCl3 100uM,,
Wavelength (nm),Abs,Wavelength (nm),Abs,Wavelength (nm),Abs,Wavelength (nm),Abs,Wavelength (nm),Abs,
1400,0.00613343,1400,0.00603604,1400,0.0102921,1400,0.00626267,1400,0.00618602,
1390,0.00198946,1390,0.00114411,1390,0.00283914,1390,0.00182077,1390,0.00224857,
1380,0.00126632,1380,0.000918084,1380,0.00200886,1380,0.00175855,1380,0.00220176,
1370,0.00114819,1370,0.000892688,1370,0.00180185,1370,0.00165189,1370,0.00210829,
1360,0.000804193,1360,0.000673894,1360,0.00128987,1360,0.00164306,1360,0.0018353,
1350,0.000610458,1350,0.000544386,1350,0.00107383,1350,0.00201804,1350,0.00181248,
1340,0.000389318,1340,8.35938e-05,1340,0.000957412,1340,0.00176738,1340,0.00150973,
1330,0.000368047,1330,-8.29307e-05,1330,0.000995602,1330,0.00152251,1330,0.00157875,
1320,0.000304578,1320,-0.00020176,1320,0.000928694,1320,0.00125064,1320,0.0015939,
1310,0.000117771,1310,-0.000447183,1310,0.000704514,1310,0.000948409,1310,0.0012232,
1300,0.000221951,1300,-0.000332094,1300,0.000873079,1300,0.00106937,1300,0.00126624,
1290,0.000157363,1290,-0.000356355,1290,0.000960836,1290,0.00102235,1290,0.00133349,
1280,0.000192764,1280,-0.000232911,1280,0.00100738,1280,0.00107625,1280,0.00136392,
1270,0.000235937,1270,-0.000192445,1270,0.00111998,1270,0.00119587,1270,0.00145612,
1260,0.000179945,1260,-0.000194101,1260,0.00110817,1260,0.00125651,1260,0.00141955,
1250,0.000195923,1250,-0.000161912,1250,0.00101926,1250,0.0013459,1250,0.00151711,
1240,0.000240314,1240,-0.000222355,1240,0.000857413,1240,0.00128699,1240,0.00174056,
1230,0.000242723,1230,-0.000202278,1230,0.000725776,1230,0.0012469,1230,0.00178649,
1220,0.000259092,1220,-0.000200518,1220,0.000614631,1220,0.00118883,1220,0.0018,
1210,0.000225033,1210,-0.000264733,1210,0.000526218,1210,0.00119576,1210,0.00179717,
1200,0.00027971,1200,-0.000241397,1200,0.000521682,1200,0.00124649,1200,0.00181162,
1190,0.000200119,1190,-0.000449614,1190,0.000366026,1190,0.00121261,1190,0.00182673,
1180,0.000124478,1180,-0.000538715,1180,0.00040147,1180,0.00114198,1180,0.00189723,
1170,0.000175335,1170,-0.000516739,1170,0.000522667,1170,0.00124374,1170,0.00209687,
1160,0.000112489,1160,-0.000693397,1160,0.000435931,1160,0.00122248,1160,0.00223871,
1150,0.000196182,1150,-0.000267216,1150,0.000953494,1150,0.00121801,1150,0.00283255,
1140,9.89733e-05,1140,-0.000396496,1140,0.000841539,1140,0.00168643,1140,0.00300197,
1130,0.000127662,1130,-0.000374564,1130,0.00109542,1130,0.00188046,1130,0.00322947,
1120,0.000134343,1120,-0.000492848,1120,0.000990542,1120,0.00170644,1120,0.00292044,
1110,0.000150864,1110,-0.000586077,1110,0.000789229,1110,0.00168508,1110,0.0026633,
1100,0.000241298,1100,-0.000496726,1100,0.000812518,1100,0.00183926,1100,0.00266606,
1090,0.00032613,1090,-0.000503242,1090,0.000676591,1090,0.00197778,1090,0.002589,
1080,0.000383826,1080,-0.000445062,1080,0.000694662,1080,0.00219216,1080,0.00290181,
1070,0.000542261,1070,-0.000372857,1070,0.000772918,1070,0.00236008,1070,0.00323685,
1060,0.000602992,1060,-0.0003293,1060,0.00102417,1060,0.00257074,1060,0.0032652,
1050,0.000618131,1050,-0.000303692,1050,0.0012252,1050,0.00273141,1050,0.00332666,
1040,0.000823436,1040,-0.00013676,1040,0.00154997,1040,0.00300004,1040,0.00348666,
1030,0.000862859,1030,-5.86019e-05,1030,0.00180895,1030,0.00318835,1030,0.00365958,
1020,0.000946619,1020,8.70373e-05,1020,0.00192921,1020,0.00342978,1020,0.00390268,
1010,0.000916449,1010,8.90828e-05,1010,0.00187271,1010,0.00343612,1010,0.00408002,
1000,0.000926203,1000,0.000173937,1000,0.00199937,1000,0.00366208,1000,0.00464566,
990,0.000854637,990,0.000150061,990,0.00195422,990,0.0037684,990,0.00521034,
980,0.000911339,980,0.000230317,980,0.00215894,980,0.00407991,980,0.00578161,
970,0.000772217,970,0.000166116,970,0.00211922,970,0.00435845,970,0.00629316,
960,0.000916138,960,0.000433055,960,0.00251362,960,0.00489335,960,0.00663822,
950,0.000814904,950,0.000448006,950,0.00256272,950,0.00515106,950,0.00659275,
940,0.000816771,940,0.000480787,940,0.00265202,940,0.00550177,940,0.00658905,
930,0.000762519,930,0.000569295,930,0.00290397,930,0.00594024,930,0.00678263,
920,0.000760341,920,0.000688776,920,0.00329123,920,0.00637766,920,0.00709534,
910,0.000697228,910,0.000798021,910,0.00362475,910,0.00690493,910,0.00747641,
900,0.000819105,900,0.000967011,900,0.00417708,900,0.00756493,900,0.00827708,
890,0.00129026,890,0.00328341,890,0.00709476,890,0.0107842,890,0.0125649,
880,0.00186764,880,0.00358526,880,0.00578418,880,0.0106963,880,0.0113955,
870,0.000871497,870,0.0015508,870,0.00669608,870,0.010505,870,0.0115259,
860,0.00155714,860,0.00256733,860,0.00799969,860,0.0126435,860,0.0135557,
850,0.00169493,850,0.00329118,850,0.00889301,850,0.0141673,850,0.0159253,
840,0.00180195,840,0.00337653,840,0.0101736,840,0.0158597,840,0.017855,
830,0.00205658,830,0.00383041,830,0.0114539,830,0.0182625,830,0.020746,
820,0.00206642,820,0.00405263,820,0.0128471,820,0.020544,820,0.0238184,
810,0.00191556,810,0.00440416,810,0.014248,810,0.0234721,810,0.0276849,
800,0.00222648,800,0.00498667,800,0.0162638,800,0.0271442,800,0.0329192,
790,0.00213894,790,0.00516738,790,0.018246,790,0.0312652,790,0.03936572,
780,0.00212203,780,0.00562416,780,0.0206329,780,0.0366095,780,0.0481146,
770,0.00195589,770,0.00597013,770,0.0231412,770,0.0430814,770,0.0595966,
760,0.00217811,760,0.0064152,760,0.0263144,760,0.0513318,760,0.07384976,
750,0.00203253,750,0.00653317,750,0.0297819,750,0.0612654,750,0.0887314,
740,0.00201794,740,0.00680477,740,0.0340162,740,0.0740529,740,0.103811,
730,0.00204111,730,0.00707298,730,0.0393878,730,0.0903137,730,0.120261,
720,0.00192775,720,0.00725956,720,0.0457797,720,0.110443,720,0.139073,
710,0.00173588,710,0.00747585,710,0.0532868,710,0.135365,710,0.162841,
700,0.00170982,700,0.00769386,700,0.0619648,700,0.165096,700,0.191929,
690,0.0016647,690,0.00800963,690,0.0718893,690,0.199426,690,0.22639,
680,0.0015024,680,0.00829827,680,0.0826626,680,0.237357,680,0.264856,
670,0.00154272,670,0.00886059,670,0.0945348,670,0.278526,670,0.307208,
660,0.00113386,660,0.00884191,660,0.106587,660,0.321793,660,0.351833,
650,0.000988856,650,0.0092485,650,0.1193223,650,0.366361,650,0.398315,
640,0.00100992,640,0.0100302,640,0.132342,640,0.411227,640,0.444556,
630,0.0010183,630,0.0110502,630,0.145679,630,0.455917,630,0.490145,
620,0.00105829,620,0.0122848,620,0.158658,620,0.499545,620,0.534464,
610,0.00127141,610,0.0138139,610,0.171443,610,0.541591,610,0.577304,
600,0.00184893,600,0.0155625,600,0.183156,600,0.579776,600,0.616929,
590,0.00277018,590,0.0176229,590,0.193372,590,0.612538,590,0.651124,
580,0.00534843,580,0.0201569,580,0.201741,580,0.637642,580,0.676509,
570,0.0115719,570,0.0236367,570,0.207986,570,0.653536,570,0.691677,
560,0.0279219,560,0.0290962,560,0.212427,560,0.660218,560,0.696671,
550,0.0664649,550,0.0376687,550,0.215701,550,0.658173,550,0.692952,
540,0.144985,540,0.0522535,540,0.218863,540,0.648909,540,0.681709,
530,0.267888,530,0.0748114,530,0.222828,530,0.633099,530,0.662679,
520,0.412424,520,0.105187,520,0.22834,520,0.610964,520,0.635905,
510,0.549374,510,0.139605,510,0.234729,510,0.583151,510,0.602377,
500,0.676433,500,0.175791,500,0.241434,500,0.550429,500,0.563506,
490,0.789006,490,0.212752,490,0.248022,490,0.514294,490,0.521045,
[...]
NIR Scan Rate nm Changed: 2024-09-11 1:57:39 PM, Old:    0.004, New:   12.000
Common Interval nm Changed: 2024-09-11 1:57:39 PM, Old:    1.000, New:    0.667
Source changeover Changed: 2024-09-11 1:57:39 PM, Old:   350.00, New:   300.00
Detector changeover Changed: 2024-09-11 1:57:39 PM, Old:   800.00, New:   900.00
Grating changeover Changed: 2024-09-11 1:57:39 PM, Old:   800.00, New:   900.00
Baseline Correction Changed: 2024-09-11 1:57:39 PM, Old:0, New:2
Sipper Type Changed: 2024-09-11 1:57:39 PM, Old:Internal RSA, New:External sipper
End Method Modifications
<Current Wavelength> , 300.000
<SBW (nm)> , 2.00
<Energy> , 66.07
<Slit Height> , Full

t=3hrs FeCl3 50uM,
t=3hrs FeCl3 50uM
Collection Time: 2024-09-11 2:26:09 PM
Operator Name  :
Scan Version 6.4.0.1610
Parameter List :
Instrument  Cary 7000
Instrument Version  3.07
Method Log     :
Method Name    :
Date/Time stamp: 2024-09-11 1:55:44 PM
Method Modifications:
ConcentrationReportSelected Changed: 2024-09-11 1:55:44 PM, Old:Choice 0, New:Choice 1
ConcentrationReportSelected Changed: 2024-09-11 1:55:44 PM, Old:ON, New:Choice 0
MCAReportSelected Changed: 2024-09-11 1:55:44 PM, Old:Choice 0, New:Choice 1
MCAReportSelected Changed: 2024-09-11 1:55:44 PM, Old:ON, New:Choice 0
X Start nm Changed: 2024-09-11 1:57:39 PM, Old:800.000, New:1400.000
X Stop nm Changed: 2024-09-11 1:57:39 PM, Old:200.000, New:300.000
UVVIS Scan Rate nm Changed: 2024-09-11 1:57:39 PM, Old:  602.007, New:  600.000
NIR Scan Rate nm Changed: 2024-09-11 1:57:39 PM, Old:    0.004, New:   12.000
Common Interval nm Changed: 2024-09-11 1:57:39 PM, Old:    1.000, New:    0.667
Source changeover Changed: 2024-09-11 1:57:39 PM, Old:   350.00, New:   300.00
Detector changeover Changed: 2024-09-11 1:57:39 PM, Old:   800.00, New:   900.00
Grating changeover Changed: 2024-09-11 1:57:39 PM, Old:   800.00, New:   900.00
Baseline Correction Changed: 2024-09-11 1:57:39 PM, Old:0, New:2
Sipper Type Changed: 2024-09-11 1:57:39 PM, Old:Internal RSA, New:External sipper
End Method Modifications
<Current Wavelength> , 298.667
<SBW (nm)> , 2.00
<Energy> , 72.44
<Slit Height> , Full

t=3hrs FeCl3 100uM,
t=3hrs FeCl3 100uM
Collection Time: 2024-09-11 2:31:18 PM
Operator Name  :
Scan Version 6.4.0.1610
Parameter List :
Instrument  Cary 7000
Instrument Version  3.07
Method Log     :
Method Name    :
Date/Time stamp: 2024-09-11 1:55:44 PM
Method Modifications:
ConcentrationReportSelected Changed: 2024-09-11 1:55:44 PM, Old:Choice 0, New:Choice 1
ConcentrationReportSelected Changed: 2024-09-11 1:55:44 PM, Old:ON, New:Choice 0
MCAReportSelected Changed: 2024-09-11 1:55:44 PM, Old:Choice 0, New:Choice 1
MCAReportSelected Changed: 2024-09-11 1:55:44 PM, Old:ON, New:Choice 0
X Start nm Changed: 2024-09-11 1:57:39 PM, Old:800.000, New:1400.000
X Stop nm Changed: 2024-09-11 1:57:39 PM, Old:200.000, New:300.000
UVVIS Scan Rate nm Changed: 2024-09-11 1:57:39 PM, Old:  602.007, New:  600.000
NIR Scan Rate nm Changed: 2024-09-11 1:57:39 PM, Old:    0.004, New:   12.000
Common Interval nm Changed: 2024-09-11 1:57:39 PM, Old:    1.000, New:    0.667
Source changeover Changed: 2024-09-11 1:57:39 PM, Old:   350.00, New:   300.00
Detector changeover Changed: 2024-09-11 1:57:39 PM, Old:   800.00, New:   900.00
Grating changeover Changed: 2024-09-11 1:57:39 PM, Old:   800.00, New:   900.00
Baseline Correction Changed: 2024-09-11 1:57:39 PM, Old:0, New:2
Sipper Type Changed: 2024-09-11 1:57:39 PM, Old:Internal RSA, New:External sipper
End Method Modifications
<Current Wavelength> , 300.000
<SBW (nm)> , 2.00
<Energy> , 72.44
<Slit Height> , Full

File: 2024_09_11_imine polymer t=5hrs FeCl3 solution doping.csv
t=5hrs FeCl3 0uM,,t=5hrs FeCl3 5uM,,t=5hrs FeCl3 20uM,,t=5hrs FeCl3 50uM,,t=5hrs FeCl3 100uM,,
Wavelength (nm),Abs,Wavelength (nm),Abs,Wavelength (nm),Abs,Wavelength (nm),Abs,Wavelength (nm),Abs,
1400,0.00754828,1400,0.00660087,1400,0.00973622,1400,0.00559996,1400,0.00725482,
1391,0.00334406,1391,0.0021207,1391,0.0029862,1391,0.00182228,1391,0.00365942,
1382,0.00231316,1382,0.00136075,1382,0.00183718,1382,0.00122829,1382,0.00301469,
1373,0.00205375,1373,0.00128398,1373,0.00193738,1373,0.00124464,1373,0.0030473,
1364,0.00182696,1364,0.00104957,1364,0.00193587,1364,0.00132131,1364,0.00297968,
1355,0.00121414,1355,0.000638895,1355,0.00158907,1355,0.00107217,1355,0.00254999,
1346,0.000649991,1346,0.00041712,1346,0.00185467,1346,0.00109989,1346,0.00246418,
1337,0.000507791,1337,0.000206619,1337,0.00209885,1337,0.00115455,1337,0.00243338,
1328,0.000230964,1328,0.000198306,1328,0.00233247,1328,0.0010921,1328,0.00243731,
1319,0.000203227,1319,0.000215347,1319,0.00232609,1319,0.000918525,1319,0.00237242,
1310,0.000292221,1310,0.000238061,1310,0.00202155,1310,0.00084447,1310,0.00243367,
1301,0.000315561,1301,0.000330845,1301,0.0012973,1301,0.000883921,1301,0.00246202,
1292,0.000321416,1292,0.000411445,1292,0.000587335,1292,0.000677368,1292,0.002549,
1283,0.000283078,1283,0.000536326,1283,0.000358384,1283,0.000532231,1283,0.00260754,
1274,0.000346052,1274,0.000507636,1274,0.000230912,1274,0.000490039,1274,0.00260889,
1265,0.000347606,1265,0.000530339,1265,0.000240314,1265,0.000550348,1265,0.00271229,
1256,0.000350197,1256,0.000469385,1256,0.000180333,1256,0.000460056,1256,0.0027758,
1247,0.000393671,1247,0.000470007,1247,0.000268728,1247,0.000575334,1247,0.00284513,
1238,0.000492812,1238,0.000397609,1238,0.000321312,1238,0.000617975,1238,0.0029496,
1229,0.000483482,1229,0.000198487,1229,0.000341052,1229,0.000470577,1229,0.00297906,
1220,0.00053744,1220,0.000154049,1220,0.000596304,1220,0.000490531,1220,0.00313758,
1211,0.000746934,1211,0.000161403,1211,0.000705811,1211,0.000489365,1211,0.00316647,
1202,0.000638895,1202,0.000178287,1202,0.000843095,1202,0.000565329,1202,0.00316079,
1193,0.000799291,1193,0.000156587,1193,0.00073135,1193,0.000549207,1193,0.00295727,
1184,0.00064841,1184,0.000134524,1184,0.000738248,1184,0.000562711,1184,0.00288805,
1175,0.000602448,1175,0.00029059,1175,0.000843874,1175,0.00069461,1175,0.00298943,
1166,0.000557916,1166,0.000351907,1166,0.00090405,1166,0.00076519,1166,0.0030816,
1157,0.000774292,1157,0.000584925,1157,0.0009983,1157,0.000763038,1157,0.0031575,
1148,0.00137496,1148,0.00108748,1148,0.00169235,1148,0.00125983,1148,0.00386915,
1139,0.000915101,1139,0.000815863,1139,0.00133162,1139,0.00153547,1139,0.00395558,
1130,0.00100842,1130,0.000846545,1130,0.00141809,1130,0.00151311,1130,0.00419733,
1121,0.00114178,1121,0.000566547,1121,0.00120848,1121,0.00101913,1121,0.00389362,
1112,0.00120148,1112,0.00040318,1112,0.00114147,1112,0.000834874,1112,0.00382049,
1103,0.00131469,1103,0.000389914,1103,0.00124869,1103,0.000819261,1103,0.00383313,
1094,0.00142537,1094,0.000367477,1094,0.0012575,1094,0.000866127,1094,0.0038779,
1085,0.00171226,1085,0.000421421,1085,0.00130142,1085,0.000875128,1085,0.00386899,
1076,0.00205726,1076,0.000445804,1076,0.00132534,1076,0.000965843,1076,0.00391895,
1067,0.00223366,1067,0.000387194,1067,0.00134468,1067,0.000980891,1067,0.00385695,
1058,0.00238249,1058,0.00044881,1058,0.00141313,1058,0.00110674,1058,0.00393502,
1049,0.00246634,1049,0.000521993,1049,0.00167063,1049,0.00133165,1049,0.00409632,
1040,0.00233424,1040,0.00056888,1040,0.00181316,1040,0.00142269,1040,0.00423288,
1031,0.0022346,1031,0.000613853,1031,0.00183465,1031,0.00155207,1031,0.00435811,
1022,0.00216602,1022,0.000643121,1022,0.00188309,1022,0.00165587,1022,0.00448313,
1013,0.00204046,1013,0.000677731,1013,0.00188418,1013,0.00183406,1013,0.00466756,
1004,0.00182044,1004,0.000686495,1004,0.00199926,1004,0.00205372,1004,0.00484008,
995,0.0016976,995,0.000721264,995,0.00208028,995,0.0022531,995,0.00498727,
986,0.00160156,986,0.000767238,986,0.00227137,986,0.00251062,986,0.00521207,
977,0.00143261,977,0.000848931,977,0.0024641,977,0.00279029,977,0.00545849,
968,0.00125609,968,0.000711489,968,0.00249198,968,0.00289884,968,0.00548675,
959,0.00136745,959,0.0010024,959,0.00306038,959,0.00326557,959,0.00605008,
950,0.00120783,950,0.001001,950,0.00327947,950,0.00342362,950,0.00642771,
941,0.00109467,941,0.00102181,941,0.0035933,941,0.00352346,941,0.00676988,
932,0.00106945,932,0.00108927,932,0.00383953,932,0.00375208,932,0.00721242,
923,0.00104057,923,0.00111966,923,0.00405381,923,0.00393565,923,0.00768335,
914,0.000994642,914,0.00120745,914,0.00438352,914,0.00424156,914,0.00830547,
905,0.000973263,905,0.00129226,905,0.00467973,905,0.00452119,905,0.00888331,
896,0.00425463,896,0.00157249,896,0.00687524,896,0.00737908,896,0.0108832,
887,0.000572742,887,0.00254291,887,0.00472477,887,0.00769049,887,0.0125372,
878,0.00448729,878,0.00402089,878,0.0084431,878,0.00953455,878,0.0150501,
869,0.00285264,869,0.0030991,869,0.00798503,869,0.00897135,869,0.015576,
860,0.00315643,860,0.00382613,860,0.00815167,860,0.00987994,860,0.0168253,
851,0.00357722,851,0.00403688,851,0.0092691,851,0.010982,851,0.0186947,
842,0.00305986,842,0.0040286,842,0.00997348,842,0.0117912,842,0.0208358,
833,0.00350551,833,0.00450144,833,0.0110892,833,0.0130672,833,0.0229598,
824,0.00356334,824,0.00478894,824,0.0122652,824,0.0145016,824,0.0258705,
815,0.00366401,815,0.00460603,815,0.0135106,815,0.0158319,815,0.0291431,
806,0.00345387,806,0.00485961,806,0.0146452,806,0.0171096,806,0.0332543,
797,0.00398152,797,0.00558501,797,0.0165436,797,0.019394,797,0.0388826,
788,0.00383334,788,0.00560219,788,0.0181942,788,0.0213463,788,0.0454722,
779,0.0038641,779,0.00597315,779,0.0201316,779,0.0238232,779,0.054472,
770,0.0039591,770,0.00621062,770,0.0223859,770,0.026606,770,0.0660457,
761,0.00388385,761,0.00632636,761,0.0244643,761,0.0297553,761,0.0797845,
752,0.0039287,752,0.00660229,752,0.026916,752,0.0333314,752,0.0938555,
743,0.00379809,743,0.00665215,743,0.029565,743,0.0375138,743,0.107423,
734,0.00385927,734,0.00668619,734,0.0327039,734,0.0424163,734,0.120724,
725,0.00378547,725,0.00662087,725,0.0362123,725,0.0483084,725,0.13489,
716,0.0037685,716,0.0067795,716,0.0403221,716,0.0553192,716,0.151731,
707,0.00377558,707,0.0069199,707,0.0451686,707,0.063415,707,0.172484,
698,0.00383055,698,0.00687422,698,0.0505753,698,0.0724846,698,0.196865,
689,0.00386152,689,0.00702441,689,0.0563039,689,0.0823912,689,0.224604,
680,0.00416239,680,0.00742856,680,0.0626689,680,0.0931542,680,0.255414,
671,0.00434718,671,0.00755737,671,0.0692412,671,0.104391,671,0.288448,
662,0.00397507,662,0.00708711,662,0.0756931,662,0.115802,662,0.32318,
653,0.00388706,653,0.00701489,653,0.0826215,653,0.127871,653,0.358929,
644,0.0037086,644,0.0069229,644,0.0895864,644,0.13997,644,0.394616,
635,0.00346631,635,0.00682607,635,0.0965606,635,0.152171,635,0.429785,
626,0.00336067,626,0.00693245,626,0.103723,626,0.16471,626,0.464247,
617,0.00342597,617,0.00709521,617,0.110845,617,0.17683,617,0.49786,
608,0.00393962,608,0.00760745,608,0.118029,608,0.188768,608,0.529995,
599,0.00458183,599,0.00801886,599,0.124354,599,0.199424,599,0.558943,
590,0.00542339,590,0.00829257,590,0.130043,590,0.20889,590,0.583855,
581,0.00766169,581,0.00897437,581,0.134988,581,0.217335,581,0.603031,
[...]
MCAReportSelected Changed: 2024-09-11 3:56:57 PM, Old:ON, New:Choice 0
X Start nm Changed: 2024-09-11 3:59:31 PM, Old:800.000, New:1400.000
X Stop nm Changed: 2024-09-11 3:59:31 PM, Old:200.000, New:300.000
UVVIS Scan Rate nm Changed: 2024-09-11 3:59:31 PM, Old:  602.007, New:  600.000
NIR Scan Rate nm Changed: 2024-09-11 3:59:31 PM, Old:    0.004, New:   12.000
Source changeover Changed: 2024-09-11 3:59:31 PM, Old:   350.00, New:   300.00
Detector changeover Changed: 2024-09-11 3:59:31 PM, Old:   800.00, New:   900.00
Grating changeover Changed: 2024-09-11 3:59:31 PM, Old:   800.00, New:   900.00
Baseline Correction Changed: 2024-09-11 3:59:31 PM, Old:0, New:2
Sipper Type Changed: 2024-09-11 3:59:31 PM, Old:Internal RSA, New:External sipper
End Method Modifications
<Current Wavelength> , 300.000
<SBW (nm)> , 2.00
<Energy> , 72.44
<Slit Height> , Full

t=5hrs FeCl3 50uM,
t=5hrs FeCl3 50uM
Collection Time: 2024-09-11 4:18:03 PM
Operator Name  :
Scan Version 6.4.0.1610
Parameter List :
Instrument  Cary 7000
Instrument Version  3.07
Method Log     :
Method Name    :
Date/Time stamp: 2024-09-11 3:56:56 PM
Method Modifications:
ConcentrationReportSelected Changed: 2024-09-11 3:56:57 PM, Old:Choice 0, New:Choice 1
ConcentrationReportSelected Changed: 2024-09-11 3:56:57 PM, Old:ON, New:Choice 0
MCAReportSelected Changed: 2024-09-11 3:56:57 PM, Old:Choice 0, New:Choice 1
MCAReportSelected Changed: 2024-09-11 3:56:57 PM, Old:ON, New:Choice 0
X Start nm Changed: 2024-09-11 3:59:31 PM, Old:800.000, New:1400.000
X Stop nm Changed: 2024-09-11 3:59:31 PM, Old:200.000, New:300.000
UVVIS Scan Rate nm Changed: 2024-09-11 3:59:31 PM, Old:  602.007, New:  600.000
NIR Scan Rate nm Changed: 2024-09-11 3:59:31 PM, Old:    0.004, New:   12.000
Source changeover Changed: 2024-09-11 3:59:31 PM, Old:   350.00, New:   300.00
Detector changeover Changed: 2024-09-11 3:59:31 PM, Old:   800.00, New:   900.00
Grating changeover Changed: 2024-09-11 3:59:31 PM, Old:   800.00, New:   900.00
Baseline Correction Changed: 2024-09-11 3:59:31 PM, Old:0, New:2
Sipper Type Changed: 2024-09-11 3:59:31 PM, Old:Internal RSA, New:External sipper
End Method Modifications
<Current Wavelength> , 300.000
<SBW (nm)> , 2.00
<Energy> , 72.44
<Slit Height> , Full

t=5hrs FeCl3 100uM,
t=5hrs FeCl3 100uM
Collection Time: 2024-09-11 4:21:40 PM
Operator Name  :
Scan Version 6.4.0.1610
Parameter List :
Instrument  Cary 7000
Instrument Version  3.07
Method Log     :
Method Name    :
Date/Time stamp: 2024-09-11 3:56:56 PM
Method Modifications:
ConcentrationReportSelected Changed: 2024-09-11 3:56:57 PM, Old:Choice 0, New:Choice 1
ConcentrationReportSelected Changed: 2024-09-11 3:56:57 PM, Old:ON, New:Choice 0
MCAReportSelected Changed: 2024-09-11 3:56:57 PM, Old:Choice 0, New:Choice 1
MCAReportSelected Changed: 2024-09-11 3:56:57 PM, Old:ON, New:Choice 0
X Start nm Changed: 2024-09-11 3:59:31 PM, Old:800.000, New:1400.000
X Stop nm Changed: 2024-09-11 3:59:31 PM, Old:200.000, New:300.000
UVVIS Scan Rate nm Changed: 2024-09-11 3:59:31 PM, Old:  602.007, New:  600.000
NIR Scan Rate nm Changed: 2024-09-11 3:59:31 PM, Old:    0.004, New:   12.000
Source changeover Changed: 2024-09-11 3:59:31 PM, Old:   350.00, New:   300.00
Detector changeover Changed: 2024-09-11 3:59:31 PM, Old:   800.00, New:   900.00
Grating changeover Changed: 2024-09-11 3:59:31 PM, Old:   800.00, New:   900.00
Baseline Correction Changed: 2024-09-11 3:59:31 PM, Old:0, New:2
Sipper Type Changed: 2024-09-11 3:59:31 PM, Old:Internal RSA, New:External sipper
End Method Modifications
<Current Wavelength> , 299.000
<SBW (nm)> , 2.00
<Energy> , 72.44
<Slit Height> , Full