Folder: data-visualizer/UV-Vis data/2024_09

File: 2024_09_03_imine FeCl3 doping.csv
imine undoped,,imine 1 min FeCl3 doping,,imine 10 min FeCl3,,imine 30 min FeCl3 doping,,imine polymer 1 hour FeCl3,,
Wavelength (nm),Abs,Wavelength (nm),Abs,Wavelength (nm),Abs,Wavelength (nm),Abs,Wavelength (nm),Abs,
1200,-0.0175043,1200,-0.0140852,1200,-0.0146954,1200,-0.0090797,1200,-0.0097495,
1192,-0.0172712,1192,-0.0141514,1192,-0.0146479,1192,-0.0091523,1192,-0.00990367,
1184,-0.0174783,1184,-0.0142888,1184,-0.0147301,1184,-0.00927557,1184,-0.00993555,
1176,-0.0170251,1176,-0.0139898,1176,-0.0145863,1176,-0.00910992,1176,-0.00947757,
1168,-0.0170552,1168,-0.013947,1168,-0.0143261,1168,-0.00898929,1168,-0.00958576,
1160,-0.0168239,1160,-0.0138075,1160,-0.0142722,1160,-0.00895826,1160,-0.00941658,
1152,-0.0166971,1152,-0.0137102,1152,-0.0140027,1152,-0.00885463,1152,-0.00937813,
1144,-0.0168275,1144,-0.0139506,1144,-0.0142523,1144,-0.00926356,1144,-0.00951034,
1136,-0.0166364,1136,-0.0136419,1136,-0.0140967,1136,-0.00900314,1136,-0.00909354,
1128,-0.0164099,1128,-0.0136454,1128,-0.0140139,1128,-0.00889136,1128,-0.0091707,
1120,-0.0163309,1120,-0.0135468,1120,-0.0140916,1120,-0.00878752,1120,-0.0092002,
1112,-0.0163313,1112,-0.0135425,1112,-0.0140499,1112,-0.00887645,1112,-0.00928221,
1104,-0.0164825,1104,-0.0136508,1104,-0.013912,1104,-0.0088311,1104,-0.00929224,
1096,-0.0162012,1096,-0.0135402,1096,-0.013906,1096,-0.00871395,1096,-0.00918677,
1088,-0.0161476,1088,-0.0134323,1088,-0.0138389,1088,-0.00872404,1088,-0.00916893,
1080,-0.0160527,1080,-0.0131336,1080,-0.0137524,1080,-0.00871618,1080,-0.00887685,
1072,-0.0158769,1072,-0.0129405,1072,-0.0136059,1072,-0.00837825,1072,-0.00877169,
1064,-0.015698,1064,-0.0129466,1064,-0.0136691,1064,-0.00822105,1064,-0.00871603,
1056,-0.015689,1056,-0.0128008,1056,-0.0135528,1056,-0.00841583,1056,-0.00867127,
1048,-0.0156731,1048,-0.0128561,1048,-0.0136762,1048,-0.00828241,1048,-0.00871674,
1040,-0.0154498,1040,-0.0125433,1040,-0.0132854,1040,-0.00819148,1040,-0.00852448,
1032,-0.0152727,1032,-0.0125123,1032,-0.0131962,1032,-0.00782792,1032,-0.00820499,
1024,-0.015273,1024,-0.0125613,1024,-0.0132438,1024,-0.00802903,1024,-0.00842304,
1016,-0.0151991,1016,-0.0122809,1016,-0.0130848,1016,-0.00781297,1016,-0.00817456,
1008,-0.0149387,1008,-0.0122218,1008,-0.0128306,1008,-0.00766493,1008,-0.00805607,
1000,-0.0149117,1000,-0.0121049,1000,-0.0128224,1000,-0.00752624,1000,-0.00808991,
992,-0.0150401,992,-0.0123485,992,-0.012946,992,-0.00766747,992,-0.00805637,
984,-0.0147831,984,-0.0121765,984,-0.0127602,984,-0.00751698,984,-0.00798644,
976,-0.0146611,976,-0.0119567,976,-0.0126527,976,-0.00740564,976,-0.00799482,
968,-0.0147845,968,-0.012088,968,-0.0126242,968,-0.00762683,968,-0.00810333,
960,-0.0144062,960,-0.0118058,960,-0.0124422,960,-0.0073839,960,-0.00783189,
952,-0.01447,952,-0.0118801,952,-0.0124044,952,-0.00735402,952,-0.00765384,
944,-0.0142797,944,-0.0115082,944,-0.0122938,944,-0.0071662,944,-0.00756379,
936,-0.0140374,936,-0.0114105,936,-0.0120454,936,-0.00726488,936,-0.0075094,
928,-0.0139452,928,-0.0114541,928,-0.0120056,928,-0.00708059,928,-0.0075958,
920,-0.0139579,920,-0.011297,920,-0.012001,920,-0.00698712,920,-0.00753876,
912,-0.0138309,912,-0.0113672,912,-0.0119856,912,-0.00730174,912,-0.00776365,
904,-0.0137945,904,-0.0114011,904,-0.011949,904,-0.0069999,904,-0.007561,
896,-0.0184669,896,-0.014935,896,-0.0167031,896,-0.00784867,896,-0.0110348,
888,-0.0200934,888,-0.0125625,888,-0.0186233,888,-0.00922174,888,-0.00791939,
880,-0.0194219,880,-0.0193882,880,-0.0144757,880,-0.0123616,880,-0.0128262,
872,-0.0180971,872,-0.0179492,872,-0.0168429,872,-0.0103545,872,-0.0110151,
864,-0.0165401,864,-0.0147345,864,-0.0149525,864,-0.0080644,864,-0.0106372,
856,-0.0169372,856,-0.0150803,856,-0.0152466,856,-0.0101469,856,-0.0116257,
848,-0.015725,848,-0.0146554,848,-0.0144474,848,-0.00877549,848,-0.00975477,
840,-0.016024,840,-0.014447,840,-0.0142248,840,-0.00848732,840,-0.00991404,
832,-0.015676,832,-0.0140511,832,-0.0141752,832,-0.00865554,832,-0.0100208,
824,-0.0158799,824,-0.0143857,824,-0.014518,824,-0.00901754,824,-0.00994203,
816,-0.0167045,816,-0.0148169,816,-0.0151568,816,-0.00868878,816,-0.0105265,
808,-0.016171,808,-0.0145599,808,-0.0142955,808,-0.00874201,808,-0.00992447,
800,-0.0159403,800,-0.0142063,800,-0.0141385,800,-0.00792386,800,-0.00937063,
792,-0.0157276,792,-0.0138071,792,-0.0133645,792,-0.00758048,792,-0.00928489,
784,-0.0154947,784,-0.0135382,784,-0.0133569,784,-0.00756344,784,-0.00876915,
776,-0.0152,776,-0.013185,776,-0.0129757,776,-0.00696776,776,-0.00847569,
768,-0.0146821,768,-0.0124421,768,-0.0122205,768,-0.00601424,768,-0.00742599,
760,-0.0145428,760,-0.0124325,760,-0.0120469,760,-0.00566832,760,-0.00705288,
752,-0.0147827,752,-0.0122666,752,-0.0116367,752,-0.00531789,752,-0.00676794,
744,-0.014012,744,-0.0115876,744,-0.0111753,744,-0.00467732,744,-0.00576648,
736,-0.0136521,736,-0.0108661,736,-0.0104292,736,-0.00379339,736,-0.00494603,
728,-0.0134828,728,-0.0105265,728,-0.00974338,728,-0.0027342,728,-0.00402581,
720,-0.013149,720,-0.00991936,720,-0.00928063,720,-0.00206858,720,-0.00319204,
712,-0.0129983,712,-0.0095616,712,-0.00839795,712,-0.00103044,712,-0.00217013,
704,-0.0126862,704,-0.0088105,704,-0.00758272,704,0.000180514,704,-0.00102496,
696,-0.011918,696,-0.0079108,696,-0.00633299,696,0.00177638,696,0.000485892,
688,-0.0117364,688,-0.00717741,688,-0.00550901,688,0.00311477,688,0.00192019,
680,-0.0113241,680,-0.00622639,680,-0.00414228,680,0.00457453,680,0.00370351,
672,-0.0108594,672,-0.00532704,672,-0.00285915,672,0.00643774,672,0.0056212,
664,-0.0104488,664,-0.00413377,664,-0.00143734,664,0.00844751,664,0.00759288,
656,-0.00989593,656,-0.00284871,656,0.000377193,656,0.0105332,656,0.0099809,
648,-0.010024,648,-0.00196547,648,0.00162747,648,0.0123405,648,0.0117286,
640,-0.00966014,640,-0.000769426,640,0.00343197,640,0.0146439,640,0.0141222,
632,-0.00871689,632,0.000890535,632,0.00556781,632,0.0173285,632,0.0170119,
624,-0.00740955,624,0.00307198,624,0.00821989,624,0.0203546,624,0.0200178,
616,-0.00587426,616,0.00558808,616,0.0112463,616,0.0235982,616,0.0233269,
608,-0.00403391,608,0.00813938,608,0.0144497,608,0.027012,608,0.0269847,
600,-0.00283076,600,0.0102457,600,0.0170996,600,0.0299709,600,0.0300326,
592,-0.000958173,592,0.0130998,592,0.0201181,592,0.0333104,592,0.0333126,
584,0.00299175,584,0.0174029,584,0.0246739,584,0.0377725,584,0.0377791,
576,0.00889042,576,0.0235283,576,0.0306415,576,0.0432274,576,0.0429121,
568,0.0176622,568,0.0320369,568,0.0383745,568,0.0502387,568,0.0495918,
560,0.0297448,560,0.0429899,560,0.0483015,560,0.0586192,560,0.0570969,
552,0.0437223,552,0.0557925,552,0.0591595,552,0.0676226,552,0.0654244,
544,0.0587416,544,0.0688624,544,0.0705185,544,0.0769951,544,0.0739249,
536,0.0721214,536,0.0802149,536,0.0802763,536,0.0847562,536,0.0809831,
528,0.0844774,528,0.090685,528,0.0892085,528,0.0922067,528,0.0876587,
520,0.0966735,520,0.100994,520,0.0981031,520,0.0995086,520,0.0944322,
512,0.108511,512,0.110963,512,0.106899,512,0.106708,512,0.100992,
504,0.11996,504,0.120424,504,0.115263,504,0.11369,504,0.107354,
496,0.129599,496,0.128256,496,0.122234,496,0.119796,496,0.112801,
488,0.136933,488,0.134179,488,0.127833,488,0.124783,488,0.117593,
480,0.142457,480,0.138544,480,0.132011,480,0.128693,480,0.12119,
472,0.146277,472,0.141441,472,0.135094,472,0.131738,472,0.124186,
[...]
NIR Scan Rate nm Changed: 2024-09-03 1:30:02 PM, Old:    0.004, New:   12.000
Common Interval nm Changed: 2024-09-03 1:30:02 PM, Old:    1.000, New:    0.667
Source changeover Changed: 2024-09-03 1:30:02 PM, Old:   350.00, New:   300.00
Detector changeover Changed: 2024-09-03 1:30:02 PM, Old:   800.00, New:   900.00
Grating changeover Changed: 2024-09-03 1:30:02 PM, Old:   800.00, New:   900.00
Baseline Correction Changed: 2024-09-03 1:30:02 PM, Old:0, New:2
Sipper Type Changed: 2024-09-03 1:30:02 PM, Old:Internal RSA, New:External sipper
End Method Modifications
<Current Wavelength> , 300.000
<SBW (nm)> , 2.00
<Energy> , 91.20
<Slit Height> , Full

imine 30 min FeCl3 doping,
imine 30 min FeCl3 doping
Collection Time: 2024-09-03 3:22:30 PM
Operator Name  :
Scan Version 6.4.0.1610
Parameter List :
Instrument  Cary 7000
Instrument Version  3.07
Method Log     :
Method Name    :
Date/Time stamp: 2024-09-03 1:29:02 PM
Method Modifications:
ConcentrationReportSelected Changed: 2024-09-03 1:29:03 PM, Old:Choice 0, New:Choice 1
ConcentrationReportSelected Changed: 2024-09-03 1:29:03 PM, Old:ON, New:Choice 0
MCAReportSelected Changed: 2024-09-03 1:29:03 PM, Old:Choice 0, New:Choice 1
MCAReportSelected Changed: 2024-09-03 1:29:03 PM, Old:ON, New:Choice 0
X Start nm Changed: 2024-09-03 1:30:02 PM, Old:800.000, New:1200.000
X Stop nm Changed: 2024-09-03 1:30:02 PM, Old:200.000, New:300.000
UVVIS Scan Rate nm Changed: 2024-09-03 1:30:02 PM, Old:  602.007, New:  600.000
NIR Scan Rate nm Changed: 2024-09-03 1:30:02 PM, Old:    0.004, New:   12.000
Common Interval nm Changed: 2024-09-03 1:30:02 PM, Old:    1.000, New:    0.667
Source changeover Changed: 2024-09-03 1:30:02 PM, Old:   350.00, New:   300.00
Detector changeover Changed: 2024-09-03 1:30:02 PM, Old:   800.00, New:   900.00
Grating changeover Changed: 2024-09-03 1:30:02 PM, Old:   800.00, New:   900.00
Baseline Correction Changed: 2024-09-03 1:30:02 PM, Old:0, New:2
Sipper Type Changed: 2024-09-03 1:30:02 PM, Old:Internal RSA, New:External sipper
End Method Modifications
<Current Wavelength> , 300.000
<SBW (nm)> , 2.00
<Energy> , 91.20
<Slit Height> , Full

imine polymer 1 hour FeCl3,
imine polymer 1 hour FeCl3
Collection Time: 2024-09-03 4:25:43 PM
Operator Name  :
Scan Version 6.4.0.1610
Parameter List :
Instrument  Cary 7000
Instrument Version  3.07
Method Log     :
Method Name    :
Date/Time stamp: 2024-09-03 1:29:02 PM
Method Modifications:
ConcentrationReportSelected Changed: 2024-09-03 1:29:03 PM, Old:Choice 0, New:Choice 1
ConcentrationReportSelected Changed: 2024-09-03 1:29:03 PM, Old:ON, New:Choice 0
MCAReportSelected Changed: 2024-09-03 1:29:03 PM, Old:Choice 0, New:Choice 1
MCAReportSelected Changed: 2024-09-03 1:29:03 PM, Old:ON, New:Choice 0
X Start nm Changed: 2024-09-03 1:30:02 PM, Old:800.000, New:1200.000
X Stop nm Changed: 2024-09-03 1:30:02 PM, Old:200.000, New:300.000
UVVIS Scan Rate nm Changed: 2024-09-03 1:30:02 PM, Old:  602.007, New:  600.000
NIR Scan Rate nm Changed: 2024-09-03 1:30:02 PM, Old:    0.004, New:   12.000
Common Interval nm Changed: 2024-09-03 1:30:02 PM, Old:    1.000, New:    0.667
Source changeover Changed: 2024-09-03 1:30:02 PM, Old:   350.00, New:   300.00
Detector changeover Changed: 2024-09-03 1:30:02 PM, Old:   800.00, New:   900.00
Grating changeover Changed: 2024-09-03 1:30:02 PM, Old:   800.00, New:   900.00
Baseline Correction Changed: 2024-09-03 1:30:02 PM, Old:0, New:2
Sipper Type Changed: 2024-09-03 1:30:02 PM, Old:Internal RSA, New:External sipper
End Method Modifications
<Current Wavelength> , 300.000
<SBW (nm)> , 2.00
<Energy> , 91.20
<Slit Height> , Full

File: 2024_09_03_non-imine FeCl3 doping.csv
non-imine undoped,,non-imine 1 min FeCl3 doping,,non-imine 10 min FeCl3,,non-imine 30 min FeCl3 doping,,non-imine polymer 1 hour FeCl3,,
Wavelength (nm),Abs,Wavelength (nm),Abs,Wavelength (nm),Abs,Wavelength (nm),Abs,Wavelength (nm),Abs,
1200,-0.0142374,1200,-0.014806,1200,-0.0201129,1200,-0.0118565,1200,-0.0140559,
1192,-0.0143589,1192,-0.0146512,1192,-0.0201769,1192,-0.0118873,1192,-0.0141299,
1184,-0.0144859,1184,-0.0149779,1184,-0.0203015,1184,-0.0119831,1184,-0.0144396,
1176,-0.0142124,1176,-0.0144584,1176,-0.019993,1176,-0.0116381,1176,-0.0141748,
1168,-0.0140567,1168,-0.0146157,1168,-0.0202303,1168,-0.0119362,1168,-0.0141761,
1160,-0.0140562,1160,-0.0145577,1160,-0.0199572,1160,-0.0116526,1160,-0.0141232,
1152,-0.0139995,1152,-0.0144993,1152,-0.0197469,1152,-0.0115667,1152,-0.0141523,
1144,-0.0142285,1144,-0.0146191,1144,-0.0202361,1144,-0.0118741,1144,-0.0142835,
1136,-0.0140725,1136,-0.0144768,1136,-0.0198246,1136,-0.011619,1136,-0.0140421,
1128,-0.0139429,1128,-0.0144968,1128,-0.0197992,1128,-0.0114384,1128,-0.0140094,
1120,-0.0140487,1120,-0.0145682,1120,-0.0197557,1120,-0.0115299,1120,-0.0139276,
1112,-0.0139292,1112,-0.0145418,1112,-0.019807,1112,-0.0114859,1112,-0.0140708,
1104,-0.0140203,1104,-0.0146703,1104,-0.0198536,1104,-0.0116466,1104,-0.0141742,
1096,-0.0139191,1096,-0.0145286,1096,-0.0195807,1096,-0.0114219,1096,-0.0139227,
1088,-0.0140234,1088,-0.0146074,1088,-0.0198046,1088,-0.0114186,1088,-0.0141858,
1080,-0.0138948,1080,-0.0143646,1080,-0.0196168,1080,-0.0111741,1080,-0.0138813,
1072,-0.0137578,1072,-0.0144586,1072,-0.0194641,1072,-0.0111931,1072,-0.0139245,
1064,-0.0138109,1064,-0.0142659,1064,-0.0194844,1064,-0.0112064,1064,-0.0137361,
1056,-0.0136473,1056,-0.0143372,1056,-0.0194252,1056,-0.0111465,1056,-0.0137802,
1048,-0.0137284,1048,-0.0143197,1048,-0.019416,1048,-0.0112381,1048,-0.0136621,
1040,-0.0135388,1040,-0.0141751,1040,-0.0192189,1040,-0.0111378,1040,-0.0136484,
1032,-0.0135152,1032,-0.0140808,1032,-0.0192438,1032,-0.0109328,1032,-0.0136385,
1024,-0.0135995,1024,-0.0140905,1024,-0.0193518,1024,-0.0108866,1024,-0.0135814,
1016,-0.0136214,1016,-0.0139566,1016,-0.019199,1016,-0.0109972,1016,-0.0135657,
1008,-0.0132476,1008,-0.0139359,1008,-0.0191519,1008,-0.0109261,1008,-0.0136028,
1000,-0.0133998,1000,-0.0138525,1000,-0.0190432,1000,-0.0108413,1000,-0.0135524,
992,-0.0134921,992,-0.0141494,992,-0.0192843,992,-0.0110626,992,-0.0137883,
984,-0.0134544,984,-0.0139587,984,-0.0190944,984,-0.0109846,984,-0.0135745,
976,-0.0133315,976,-0.0137907,976,-0.0189793,976,-0.0110887,976,-0.0134165,
968,-0.0134566,968,-0.0141041,968,-0.0190874,968,-0.0109894,968,-0.01369,
960,-0.0133044,960,-0.0137749,960,-0.0189897,960,-0.0107257,960,-0.0134506,
952,-0.0134163,952,-0.0139149,952,-0.0189171,952,-0.0109525,952,-0.013604,
944,-0.0132364,944,-0.0138054,944,-0.0188943,944,-0.0110148,944,-0.0134191,
936,-0.0133307,936,-0.0136385,936,-0.0188478,936,-0.0110705,936,-0.0133846,
928,-0.0129829,928,-0.0137385,928,-0.0188605,928,-0.0110447,928,-0.0135592,
920,-0.0131624,920,-0.013686,920,-0.0187546,920,-0.0109788,920,-0.0136326,
912,-0.013083,912,-0.0137265,912,-0.0188631,912,-0.0111893,912,-0.0137317,
904,-0.0131443,904,-0.0137355,904,-0.0187157,904,-0.011265,904,-0.0135194,
896,-0.0111034,896,-0.0232589,896,-0.0245071,896,-0.0140329,896,-0.0200439,
888,-0.0143469,888,-0.0179726,888,-0.024537,888,-0.020132,888,-0.0191619,
880,-0.0177471,880,-0.0176408,880,-0.0236694,880,-0.0168796,880,-0.0207125,
872,-0.0174057,872,-0.0210024,872,-0.0261042,872,-0.0188277,872,-0.019035,
864,-0.0135151,864,-0.0169952,864,-0.0213416,864,-0.0166919,864,-0.0187885,
856,-0.0169501,856,-0.0185756,856,-0.0246995,856,-0.0164771,856,-0.0201786,
848,-0.0150008,848,-0.0173168,848,-0.0231765,848,-0.0152831,848,-0.0187532,
840,-0.0140396,840,-0.016959,840,-0.0237844,840,-0.0150289,840,-0.0185496,
832,-0.0147009,832,-0.0171987,832,-0.0233291,832,-0.0153666,832,-0.0189825,
824,-0.0151342,824,-0.0179083,824,-0.0238073,824,-0.0160652,824,-0.0197499,
816,-0.0152208,816,-0.0179479,816,-0.0248661,816,-0.0163503,816,-0.0199879,
808,-0.0156343,808,-0.018098,808,-0.0246821,808,-0.0166823,808,-0.0201508,
800,-0.0151031,800,-0.0177843,800,-0.0244551,800,-0.0163264,800,-0.0196447,
792,-0.015143,792,-0.0175325,792,-0.0241215,792,-0.0161944,792,-0.0197745,
784,-0.0149007,784,-0.0176911,784,-0.0246643,784,-0.0163621,784,-0.0200862,
776,-0.0150504,776,-0.0176153,776,-0.0243195,776,-0.0164018,776,-0.0200651,
768,-0.0147478,768,-0.0174188,768,-0.0239006,768,-0.0159434,768,-0.0193788,
760,-0.0148607,760,-0.0173575,760,-0.0243701,760,-0.0160217,760,-0.0197176,
752,-0.0146736,752,-0.0174193,752,-0.0242899,752,-0.0162729,752,-0.0196516,
744,-0.0146124,744,-0.0172335,744,-0.0240805,744,-0.0161405,744,-0.0196397,
736,-0.0142801,736,-0.0170672,736,-0.0239338,736,-0.0159014,736,-0.0196748,
728,-0.0140668,728,-0.0168855,728,-0.0239147,728,-0.0156312,728,-0.0195188,
720,-0.0143125,720,-0.0169846,720,-0.0236336,720,-0.0158844,720,-0.0196928,
712,-0.0142604,712,-0.016838,712,-0.0240235,712,-0.0158738,712,-0.0197284,
704,-0.0139836,704,-0.0169037,704,-0.023777,704,-0.0158316,704,-0.019566,
696,-0.0137427,696,-0.0165381,696,-0.0234825,696,-0.0155861,696,-0.0195114,
688,-0.0136807,688,-0.0166662,688,-0.0234564,688,-0.0154645,688,-0.0193115,
680,-0.0133436,680,-0.016391,680,-0.0232372,680,-0.0152579,680,-0.0192211,
672,-0.0134828,672,-0.0163419,672,-0.0233533,672,-0.0153212,672,-0.0193586,
664,-0.0132113,664,-0.0163582,664,-0.0232967,664,-0.0152666,664,-0.0191601,
656,-0.012936,656,-0.0160929,656,-0.0232691,656,-0.0152527,656,-0.0189958,
648,-0.0131005,648,-0.0164276,648,-0.0237459,648,-0.0156933,648,-0.0192591,
640,-0.0129867,640,-0.0164302,640,-0.0237233,640,-0.0158604,640,-0.0191788,
632,-0.0123317,632,-0.0159273,632,-0.0234143,632,-0.0153672,632,-0.0188642,
624,-0.0114157,624,-0.0150279,624,-0.0224803,624,-0.0142878,624,-0.0180548,
616,-0.00983388,616,-0.0136915,616,-0.0209962,616,-0.0129017,616,-0.0169455,
608,-0.00748284,608,-0.0118729,608,-0.0191939,608,-0.0108956,608,-0.0150768,
600,-0.0047628,600,-0.00988515,600,-0.0175759,600,-0.00930658,600,-0.0135225,
592,-0.000394995,592,-0.00645221,592,-0.0147986,592,-0.0062291,592,-0.0109907,
584,0.00599286,584,-0.00108621,584,-0.00971908,584,-0.00101179,584,-0.00682625,
576,0.0137084,576,0.00529434,576,-0.00339433,576,0.0055073,576,-0.00171482,
568,0.0221136,568,0.0125767,568,0.00372832,568,0.0132009,568,0.00455185,
560,0.031182,560,0.0206565,560,0.0119008,560,0.0217923,560,0.011381,
552,0.0404468,552,0.0292671,552,0.0203744,552,0.0311457,552,0.0189159,
544,0.050581,544,0.0388218,544,0.0300439,544,0.0411791,544,0.0275356,
536,0.0600485,536,0.0477107,536,0.0387488,536,0.0506016,536,0.0355138,
528,0.069119,528,0.0564849,528,0.0474366,528,0.0598939,528,0.0436056,
520,0.0773222,520,0.0647775,520,0.0556009,520,0.0688518,520,0.0515719,
512,0.0843736,512,0.0721032,512,0.0630678,512,0.0766172,512,0.0588927,
504,0.09035,504,0.0785326,504,0.0696383,504,0.0838465,504,0.0657776,
496,0.095187,496,0.0839508,496,0.0752323,496,0.0897488,496,0.071606,
488,0.0985657,488,0.08786,488,0.0794702,488,0.0942968,488,0.0766108,
480,0.100461,480,0.0905814,480,0.0822623,480,0.0973306,480,0.0802733,
472,0.100867,472,0.0918528,472,0.0838886,472,0.0990907,472,0.0827451,
[...]
NIR Scan Rate nm Changed: 2024-09-03 1:30:02 PM, Old:    0.004, New:   12.000
Common Interval nm Changed: 2024-09-03 1:30:02 PM, Old:    1.000, New:    0.667
Source changeover Changed: 2024-09-03 1:30:02 PM, Old:   350.00, New:   300.00
Detector changeover Changed: 2024-09-03 1:30:02 PM, Old:   800.00, New:   900.00
Grating changeover Changed: 2024-09-03 1:30:02 PM, Old:   800.00, New:   900.00
Baseline Correction Changed: 2024-09-03 1:30:02 PM, Old:0, New:2
Sipper Type Changed: 2024-09-03 1:30:02 PM, Old:Internal RSA, New:External sipper
End Method Modifications
<Current Wavelength> , 300.000
<SBW (nm)> , 2.00
<Energy> , 87.10
<Slit Height> , Full

non-imine 30 min FeCl3 doping,
non-imine 30 min FeCl3 doping
Collection Time: 2024-09-03 3:26:16 PM
Operator Name  :
Scan Version 6.4.0.1610
Parameter List :
Instrument  Cary 7000
Instrument Version  3.07
Method Log     :
Method Name    :
Date/Time stamp: 2024-09-03 1:29:02 PM
Method Modifications:
ConcentrationReportSelected Changed: 2024-09-03 1:29:03 PM, Old:Choice 0, New:Choice 1
ConcentrationReportSelected Changed: 2024-09-03 1:29:03 PM, Old:ON, New:Choice 0
MCAReportSelected Changed: 2024-09-03 1:29:03 PM, Old:Choice 0, New:Choice 1
MCAReportSelected Changed: 2024-09-03 1:29:03 PM, Old:ON, New:Choice 0
X Start nm Changed: 2024-09-03 1:30:02 PM, Old:800.000, New:1200.000
X Stop nm Changed: 2024-09-03 1:30:02 PM, Old:200.000, New:300.000
UVVIS Scan Rate nm Changed: 2024-09-03 1:30:02 PM, Old:  602.007, New:  600.000
NIR Scan Rate nm Changed: 2024-09-03 1:30:02 PM, Old:    0.004, New:   12.000
Common Interval nm Changed: 2024-09-03 1:30:02 PM, Old:    1.000, New:    0.667
Source changeover Changed: 2024-09-03 1:30:02 PM, Old:   350.00, New:   300.00
Detector changeover Changed: 2024-09-03 1:30:02 PM, Old:   800.00, New:   900.00
Grating changeover Changed: 2024-09-03 1:30:02 PM, Old:   800.00, New:   900.00
Baseline Correction Changed: 2024-09-03 1:30:02 PM, Old:0, New:2
Sipper Type Changed: 2024-09-03 1:30:02 PM, Old:Internal RSA, New:External sipper
End Method Modifications
<Current Wavelength> , 300.000
<SBW (nm)> , 2.00
<Energy> , 91.20
<Slit Height> , Full

non-imine polymer 1 hour FeCl3,
non-imine polymer 1 hour FeCl3
Collection Time: 2024-09-03 4:30:41 PM
Operator Name  :
Scan Version 6.4.0.1610
Parameter List :
Instrument  Cary 7000
Instrument Version  3.07
Method Log     :
Method Name    :
Date/Time stamp: 2024-09-03 1:29:02 PM
Method Modifications:
ConcentrationReportSelected Changed: 2024-09-03 1:29:03 PM, Old:Choice 0, New:Choice 1
ConcentrationReportSelected Changed: 2024-09-03 1:29:03 PM, Old:ON, New:Choice 0
MCAReportSelected Changed: 2024-09-03 1:29:03 PM, Old:Choice 0, New:Choice 1
MCAReportSelected Changed: 2024-09-03 1:29:03 PM, Old:ON, New:Choice 0
X Start nm Changed: 2024-09-03 1:30:02 PM, Old:800.000, New:1200.000
X Stop nm Changed: 2024-09-03 1:30:02 PM, Old:200.000, New:300.000
UVVIS Scan Rate nm Changed: 2024-09-03 1:30:02 PM, Old:  602.007, New:  600.000
NIR Scan Rate nm Changed: 2024-09-03 1:30:02 PM, Old:    0.004, New:   12.000
Common Interval nm Changed: 2024-09-03 1:30:02 PM, Old:    1.000, New:    0.667
Source changeover Changed: 2024-09-03 1:30:02 PM, Old:   350.00, New:   300.00
Detector changeover Changed: 2024-09-03 1:30:02 PM, Old:   800.00, New:   900.00
Grating changeover Changed: 2024-09-03 1:30:02 PM, Old:   800.00, New:   900.00
Baseline Correction Changed: 2024-09-03 1:30:02 PM, Old:0, New:2
Sipper Type Changed: 2024-09-03 1:30:02 PM, Old:Internal RSA, New:External sipper
End Method Modifications
<Current Wavelength> , 300.000
<SBW (nm)> , 2.00
<Energy> , 87.10
<Slit Height> , Full