Folder: data-visualizer/UV-Vis data/2024_09 (part 5)

File: 2024_09_11_non-imine polymer t=24hrs FeCl3 solution doping.csv
t=24hrs FeCl3 0uM,,t=24hrs FeCl3 5uM,,t=24hrs FeCl3 20uM,,t=24hrs FeCl3 50uM,,t=24hrs FeCl3 100uM,,
Wavelength (nm),Abs,Wavelength (nm),Abs,Wavelength (nm),Abs,Wavelength (nm),Abs,Wavelength (nm),Abs,
1400,0.0140612,1400,0.0148932,1400,0.0150778,1400,0.0142609,1400,0.013205,
1390,0.00149897,1390,0.00199661,1390,0.00210923,1390,0.00238468,1390,0.00183879,
1380,0.000196597,1380,0.000704748,1380,0.000535859,1380,0.00089038,1380,0.000801833,
1370,-0.00029381,1370,0.000211488,1370,0.000253239,1370,0.000671613,1370,0.000831761,
1360,-0.000936528,1360,-0.000435546,1360,-0.000600398,1360,-2.8163e-05,1360,0.000298853,
1350,-0.0017209,1350,-0.00135509,1350,-0.00146526,1350,-0.000690864,1350,-0.000169002,
1340,-0.00214561,1340,-0.00181088,1340,-0.00172369,1340,-0.000862595,1340,-0.000102703,
1330,-0.00234287,1330,-0.00192449,1330,-0.00170208,1330,-0.000847714,1330,-0.000150578,
1320,-0.00241727,1320,-0.00199696,1320,-0.00174911,1320,-0.000715106,1320,-0.000236119,
1310,-0.00262867,1310,-0.00211727,1310,-0.00157706,1310,-0.000825443,1310,-0.000539336,
1300,-0.00241063,1300,-0.00212722,1300,-0.0014425,1300,-0.000803843,1300,-0.000548798,
1290,-0.00242685,1290,-0.00223024,1290,-0.00179201,1290,-0.000957088,1290,-0.000713659,
1280,-0.00236913,1280,-0.00220866,1280,-0.00179,1280,-0.000982193,1280,-0.00092418,
1270,-0.00240291,1270,-0.00225393,1270,-0.00181469,1270,-0.00099304,1270,-0.00117167,
1260,-0.00241846,1260,-0.00224106,1260,-0.00186176,1260,-0.00114415,1260,-0.00129217,
1250,-0.00249743,1250,-0.00231146,1250,-0.00192496,1250,-0.00115241,1250,-0.00115613,
1240,-0.00255075,1240,-0.00233463,1240,-0.00202272,1240,-0.00130249,1240,-0.00103131,
1230,-0.00263876,1230,-0.00234431,1230,-0.00230698,1230,-0.00155426,1230,-0.00119837,
1220,-0.00260886,1220,-0.00234885,1220,-0.00235956,1220,-0.00134595,1220,-0.00123089,
1210,-0.00269211,1210,-0.00244796,1210,-0.00256223,1210,-0.00130517,1210,-0.00146273,
1200,-0.00269031,1200,-0.00247066,1200,-0.00263906,1200,-0.00152459,1200,-0.00157448,
1190,-0.00251894,1190,-0.00242407,1190,-0.00262558,1190,-0.00133929,1190,-0.00168042,
1180,-0.0021894,1180,-0.00232094,1180,-0.00237001,1180,-0.000983846,1180,-0.0014456,
1170,-0.00185939,1170,-0.00222257,1170,-0.00204823,1170,-0.000609756,1170,-0.00100523,
1160,-0.00133248,1160,-0.00198516,1160,-0.00178221,1160,-0.000197983,1160,-0.000510947,
1150,-0.000971139,1150,-0.00161229,1150,-0.00143373,1150,0.000441217,1150,0.000554909,
1140,-0.000467146,1140,-0.000743843,1140,0.0002952,1140,0.00131072,1140,0.00130516,
1130,-0.000385013,1130,-0.000475369,1130,0.000414658,1130,0.00153612,1130,0.00160237,
1120,-0.00116754,1120,-0.00150932,1120,-0.00116181,1120,0.000214233,1120,0.000100889,
1110,-0.00159269,1110,-0.00189846,1110,-0.00174555,1110,-0.000316263,1110,-0.000452768,
1100,-0.00187779,1100,-0.00199149,1100,-0.00184196,1100,-0.00037415,1100,-0.000533182,
1090,-0.00202195,1090,-0.00197603,1090,-0.00186846,1090,-0.00049471,1090,-0.000544972,
1080,-0.00213592,1080,-0.00197335,1080,-0.0018896,1080,-0.000589179,1080,-0.000511464,
1070,-0.00216003,1070,-0.00189784,1070,-0.00190171,1070,-0.000610169,1070,-0.000401358,
1060,-0.00212485,1060,-0.00180938,1060,-0.00191609,1060,-0.000675667,1060,-0.000247399,
1050,-0.00205065,1050,-0.00175695,1050,-0.00183124,1050,-0.000591764,1050,-7.05077e-05,
1040,-0.00212376,1040,-0.00178824,1040,-0.00189918,1040,-0.000621646,1040,-7.5684e-05,
1030,-0.00207039,1030,-0.00169568,1030,-0.00176463,1030,-0.000539025,1030,7.78979e-05,
1020,-0.00208013,1020,-0.0017275,1020,-0.0017374,1020,-0.000518238,1020,0.00023143,
1010,-0.00209878,1010,-0.00172797,1010,-0.00165979,1010,-0.000443821,1010,0.000360949,
1000,-0.00210522,1000,-0.00172889,1000,-0.00162513,1000,-0.00040053,1000,0.000516059,
990,-0.00205637,990,-0.00177984,990,-0.00151159,990,-0.000228099,990,0.000704488,
980,-0.0018847,980,-0.00166015,980,-0.0012281,980,3.58535e-05,980,0.001244,
970,-0.00214159,970,-0.0019549,970,-0.00162921,970,-0.00058861,970,0.000854559,
960,-0.00179314,960,-0.00159423,960,-0.000920203,960,0.000187351,960,0.00174714,
950,-0.00179459,950,-0.00162235,950,-0.000574082,950,0.000665857,950,0.00232633,
940,-0.00188532,940,-0.00169151,940,-0.000643307,940,0.000717478,940,0.00226395,
930,-0.00191382,930,-0.00161894,930,-0.000784309,930,0.000858243,930,0.00245892,
920,-0.00192949,920,-0.00157773,920,-0.000807771,920,0.000960395,920,0.00274957,
910,-0.00196011,910,-0.00162859,910,-0.000888842,910,0.000998845,910,0.00317143,
900,-0.00196305,900,-0.0016487,900,-0.000820638,900,0.0012361,900,0.00374385,
890,0.00176291,890,0.000741333,890,0.000385458,890,0.00240363,890,0.00613117,
880,0.000453319,880,0.00101483,880,0.00113918,880,0.00310084,880,0.00712684,
870,-0.000404823,870,-0.000290343,870,0.000608721,870,0.00424114,870,0.00725198,
860,0.000441036,860,0.000941872,860,0.00162575,860,0.00489744,860,0.00865874,
850,0.000707911,850,0.00134003,850,0.00148349,850,0.00506051,850,0.0092133,
840,0.000966388,840,0.00144084,840,0.00192042,840,0.00580566,840,0.009998939,
830,0.000722509,830,0.00142396,830,0.00176936,830,0.00619471,830,0.0107485,
820,0.000791745,820,0.00150155,820,0.00178545,820,0.00641031,820,0.0115155,
810,0.000603485,810,0.001439,810,0.00171561,810,0.00660492,810,0.0122487,
800,0.000527125,800,0.00141074,800,0.00146435,800,0.00676796,800,0.0128245,
790,0.000452904,790,0.00132796,790,0.00136543,790,0.00686141,790,0.0139385,
780,0.000658391,780,0.00144591,780,0.0014697,780,0.00730389,780,0.015053,
770,0.000528887,770,0.00118424,770,0.00137724,770,0.00742861,770,0.0158773,
760,0.000493486,760,0.00148051,760,0.0015668,760,0.00773929,760,0.0167823,
750,0.000449665,750,0.00129649,750,0.00153163,750,0.0077839,750,0.0175957,
740,0.000421473,740,0.00141773,740,0.00152277,740,0.00795305,740,0.0183209,
730,0.000389733,730,0.00142248,730,0.0014464,730,0.00822878,730,0.0191817,
720,0.000428339,720,0.00148165,720,0.0015781,720,0.00842549,720,0.0200213,
710,0.000471976,710,0.00151188,710,0.00152931,710,0.00860859,710,0.0205936,
700,0.000524741,700,0.00166034,700,0.00170555,700,0.00891407,700,0.0212051,
690,0.000534019,690,0.00178033,690,0.00177807,690,0.00901255,690,0.0217053,
680,0.00106659,680,0.00231995,680,0.00221168,680,0.00944946,680,0.0222646,
670,0.00147401,670,0.00269406,670,0.00248519,670,0.00976495,670,0.0227091,
660,0.000958683,660,0.00216557,660,0.00195084,660,0.00937198,660,0.0224826,
650,0.000812103,650,0.00197313,650,0.00176455,650,0.00915754,650,0.0223714,
640,0.00102181,640,0.00215644,640,0.00194684,640,0.00917687,640,0.0222251,
630,0.00133232,630,0.0024453,630,0.00212408,630,0.00915347,630,0.0217585,
620,0.00196109,620,0.00291281,620,0.00256567,620,0.00916867,620,0.0212135,
610,0.00302389,610,0.00383036,610,0.00319184,610,0.00923557,610,0.020571,
600,0.00469441,600,0.00526565,600,0.00418395,600,0.00922573,600,0.0200603,
590,0.00814985,590,0.007924,590,0.0058744,590,0.00926278,590,0.0194148,
580,0.0177926,580,0.0148861,580,0.00944948,580,0.00942028,580,0.0188228,
570,0.0483181,570,0.0356353,570,0.0167006,570,0.0097322,570,0.0184718,
560,0.126221,560,0.0899236,560,0.0313236,560,0.0106936,560,0.0182116,
550,0.255553,550,0.188311,550,0.0558567,550,0.0123613,550,0.0185856,
540,0.398897,540,0.310742,540,0.0908397,540,0.0155017,540,0.0196579,
530,0.519928,530,0.427946,530,0.134936,530,0.0216112,530,0.0223805,
[...]
NIR Scan Rate nm Changed: 2024-09-11 10:27:39 AM, Old:    0.004, New:   12.000
Common Interval nm Changed: 2024-09-11 10:27:39 AM, Old:    1.000, New:    0.667
Source changeover Changed: 2024-09-11 10:27:39 AM, Old:   350.00, New:   300.00
Detector changeover Changed: 2024-09-11 10:27:39 AM, Old:   800.00, New:   900.00
Grating changeover Changed: 2024-09-11 10:27:39 AM, Old:   800.00, New:   900.00
Baseline Correction Changed: 2024-09-11 10:27:39 AM, Old:0, New:2
Sipper Type Changed: 2024-09-11 10:27:39 AM, Old:Internal RSA, New:External sipper
End Method Modifications
<Current Wavelength> , 300.000
<SBW (nm)> , 2.00
<Energy> , 60.26
<Slit Height> , Full

t=24hrs FeCl3 50uM,
t=24hrs FeCl3 50uM
Collection Time: 2024-09-11 11:30:48 AM
Operator Name  :
Scan Version 6.4.0.1610
Parameter List :
Instrument  Cary 7000
Instrument Version  3.07
Method Log     :
Method Name    :
Date/Time stamp: 2024-09-11 10:17:34 AM
Method Modifications:
ConcentrationReportSelected Changed: 2024-09-11 10:17:35 AM, Old:Choice 0, New:Choice 1
ConcentrationReportSelected Changed: 2024-09-11 10:17:35 AM, Old:ON, New:Choice 0
MCAReportSelected Changed: 2024-09-11 10:17:35 AM, Old:Choice 0, New:Choice 1
MCAReportSelected Changed: 2024-09-11 10:17:35 AM, Old:ON, New:Choice 0
X Start nm Changed: 2024-09-11 10:27:39 AM, Old:800.000, New:1400.000
X Stop nm Changed: 2024-09-11 10:27:39 AM, Old:200.000, New:300.000
UVVIS Scan Rate nm Changed: 2024-09-11 10:27:39 AM, Old:  602.007, New:  600.000
NIR Scan Rate nm Changed: 2024-09-11 10:27:39 AM, Old:    0.004, New:   12.000
Common Interval nm Changed: 2024-09-11 10:27:39 AM, Old:    1.000, New:    0.667
Source changeover Changed: 2024-09-11 10:27:39 AM, Old:   350.00, New:   300.00
Detector changeover Changed: 2024-09-11 10:27:39 AM, Old:   800.00, New:   900.00
Grating changeover Changed: 2024-09-11 10:27:39 AM, Old:   800.00, New:   900.00
Baseline Correction Changed: 2024-09-11 10:27:39 AM, Old:0, New:2
Sipper Type Changed: 2024-09-11 10:27:39 AM, Old:Internal RSA, New:External sipper
End Method Modifications
<Current Wavelength> , 300.000
<SBW (nm)> , 2.00
<Energy> , 72.44
<Slit Height> , Full

t=24hrs FeCl3 100uM,
t=24hrs FeCl3 100uM
Collection Time: 2024-09-11 11:35:17 AM
Operator Name  :
Scan Version 6.4.0.1610
Parameter List :
Instrument  Cary 7000
Instrument Version  3.07
Method Log     :
Method Name    :
Date/Time stamp: 2024-09-11 10:17:34 AM
Method Modifications:
ConcentrationReportSelected Changed: 2024-09-11 10:17:35 AM, Old:Choice 0, New:Choice 1
ConcentrationReportSelected Changed: 2024-09-11 10:17:35 AM, Old:ON, New:Choice 0
MCAReportSelected Changed: 2024-09-11 10:17:35 AM, Old:Choice 0, New:Choice 1
MCAReportSelected Changed: 2024-09-11 10:17:35 AM, Old:ON, New:Choice 0
X Start nm Changed: 2024-09-11 10:27:39 AM, Old:800.000, New:1400.000
X Stop nm Changed: 2024-09-11 10:27:39 AM, Old:200.000, New:300.000
UVVIS Scan Rate nm Changed: 2024-09-11 10:27:39 AM, Old:  602.007, New:  600.000
NIR Scan Rate nm Changed: 2024-09-11 10:27:39 AM, Old:    0.004, New:   12.000
Common Interval nm Changed: 2024-09-11 10:27:39 AM, Old:    1.000, New:    0.667
Source changeover Changed: 2024-09-11 10:27:39 AM, Old:   350.00, New:   300.00
Detector changeover Changed: 2024-09-11 10:27:39 AM, Old:   800.00, New:   900.00
Grating changeover Changed: 2024-09-11 10:27:39 AM, Old:   800.00, New:   900.00
Baseline Correction Changed: 2024-09-11 10:27:39 AM, Old:0, New:2
Sipper Type Changed: 2024-09-11 10:27:39 AM, Old:Internal RSA, New:External sipper
End Method Modifications
<Current Wavelength> , 300.000
<SBW (nm)> , 2.00
<Energy> , 72.44
<Slit Height> , Full

File: 2024_09_12_non-imine t=48hrs FeCl3 doping.csv
non-imine polymer t=48hrs FeCl3 0uM,,non-imine polymer t=48hrs FeCl3 5uM,,non-imine polymer t=48hrs FeCl3 20uM,,non-imine polymer t=48hrs FeCl3 50uM,,non-imine polymer t=48hrs FeCl3 100uM,,
Wavelength (nm),Abs,Wavelength (nm),Abs,Wavelength (nm),Abs,Wavelength (nm),Abs,Wavelength (nm),Abs,
1200,2.2159e-05,1200,-0.000887137,1200,-0.00145375,1200,-0.00168728,1200,-0.00236043,
1191.33,0.000128983,1191.33,-0.000817537,1191.33,-0.00151871,1191.33,-0.00161239,1191.33,-0.00238401,
1182.67,0.000412015,1182.67,-0.000883211,1182.67,-0.00153434,1182.67,-0.00128835,1182.67,-0.00223009,
1174,0.00102502,1174,-0.000714383,1174,-0.00104066,1174,-4.69028e-05,1174,-0.00131054,
1165.33,0.00126752,1165.33,-0.000523616,1165.33,-0.000781674,1165.33,0.00111162,1165.33,-0.000750303,
1156.67,0.000792419,1156.67,-0.0011694,1156.67,-0.00109231,1156.67,0.000879667,1156.67,-0.000561673,
1148,0.0015768,1148,-0.000496106,1148,-0.000891322,1148,0.000933934,1148,-6.96794e-05,
1139.33,0.00212135,1139.33,0.000887215,1139.33,0.00177448,1139.33,0.00161715,1139.33,0.00178197,
1130.67,0.00213212,1130.67,0.00115706,1130.67,0.00210234,1130.67,0.00174313,1130.67,0.00206397,
1122,0.00133365,1122,-2.41768e-05,1122,1.26841e-06,1122,7.01049e-05,1122,0.000229358,
1113.33,0.000909757,1113.33,-0.000489487,1113.33,-0.000737228,1113.33,-0.000833866,1113.33,-0.000375391,
1104.67,0.00071976,1104.67,-0.000606033,1104.67,-0.000981728,1104.67,-0.00106964,1104.67,-0.000426029,
1096,0.000676954,1096,-0.00061141,1096,-0.000889721,1096,-0.00096153,1096,-0.000388426,
1087.33,0.00051992,1087.33,-0.000637,1087.33,-0.000766583,1087.33,-0.000758624,1087.33,-0.000490676,
1078.67,0.000533423,1078.67,-0.000725082,1078.67,-0.00103798,1078.67,-0.000522272,1078.67,-0.000350096,
1070,0.000541095,1070,-0.000661142,1070,-0.0011442,1070,-0.000315539,1070,-0.000320091,
1061.33,0.000593634,1061.33,-0.000618648,1061.33,-0.00111456,1061.33,-5.59619e-05,1061.33,-0.000195085,
1052.67,0.000571057,1052.67,-0.00048566,1052.67,-0.00106814,1052.67,3.04689e-05,1052.67,-3.57225e-06,
1044,0.000639751,1044,-0.000434667,1044,-0.00107382,1044,-9.68545e-05,1044,0.000233813,
1035.33,0.000587361,1035.33,-0.00041915,1035.33,-0.00115494,1035.33,-0.000252781,1035.33,0.000413518,
1026.67,0.000538062,1026.67,-0.000416099,1026.67,-0.00115045,1026.67,-0.000221786,1026.67,0.00031538,
1018,0.000416057,1018,-0.000524806,1018,-0.00122666,1018,-0.000141573,1018,0.000303956,
1009.33,0.000410772,1009.33,-0.000510223,1009.33,-0.00104376,1009.33,-8.28343e-06,1009.33,0.000455184,
1000.67,0.000372788,1000.67,-0.000513119,1000.67,-0.000944845,1000.67,7.59043e-05,1000.67,0.000708533,
992,0.000403206,992,-0.000440666,992,-0.000838207,992,0.000175102,992,0.00106587,
983.333,0.000381753,983.333,-0.00051074,983.333,-0.000875667,983.333,0.000293387,983.333,0.00121819,
974.667,0.00025013,974.667,-0.000555727,974.667,-0.00101752,974.667,0.000119946,974.667,0.00104101,
966,-5.66348e-05,966,-0.000849523,966,-0.00190552,966,-0.00116821,966,-0.000330179,
957.333,0.000755129,957.333,-0.000120043,957.333,-0.000655766,957.333,0.000325198,957.333,0.00169204,
948.667,0.000788814,948.667,-0.000141211,948.667,-0.000579666,948.667,0.000176941,948.667,0.00177162,
940,0.000785054,940,-0.000357286,940,-0.000441339,940,0.000152469,940,0.00191143,
931.333,0.000698914,931.333,-0.000408961,931.333,-0.000349113,931.333,0.000166194,931.333,0.00206082,
922.667,0.00072479,922.667,-0.000410668,922.667,-0.00019229,922.667,0.000202942,922.667,0.00233182,
914,0.000731895,914,-0.000383978,914,-6.65736e-05,914,0.000248447,914,0.00256772,
905.333,0.000752924,905.333,-0.000334421,905.333,6.65275e-06,905.333,0.000332788,905.333,0.00294989,
896.667,0.00057015,896.667,0.00184313,896.667,0.00209464,896.667,0.0031569,896.667,0.0036228,
888,0.00381323,888,0.00227381,888,0.00125101,888,0.00311028,888,0.00739072,
879.333,0.00146736,879.333,0.00137961,879.333,0.00183109,879.333,0.00235784,879.333,0.00730829,
870.667,0.000977751,870.667,0.00192697,870.667,0.000694195,870.667,0.00204423,870.667,0.00698124,
862,0.00220384,862,0.00240386,862,0.00151082,862,0.00272052,862,0.00771167,
853.333,0.00163308,853.333,0.00275749,853.333,0.00168801,853.333,0.00327892,853.333,0.00849145,
844.667,0.00198865,844.667,0.00273657,844.667,0.0016759,844.667,0.00276572,844.667,0.00893882,
836,0.00197825,836,0.00290827,836,0.00207523,836,0.00313967,836,0.00939539,
827.333,0.00203247,827.333,0.00299696,827.333,0.00193147,827.333,0.00327454,827.333,0.010436,
818.667,0.00206714,818.667,0.00301153,818.667,0.00216391,818.667,0.00328555,818.667,0.0112354,
810,0.00198174,810,0.00288273,810,0.00205791,810,0.0032276,810,0.0118229,
801.333,0.00211136,801.333,0.00290911,801.333,0.00209461,801.333,0.00344909,801.333,0.0126428,
792.667,0.00214838,792.667,0.00269734,792.667,0.00193821,792.667,0.00450712,792.667,0.0136553,
784,0.00184204,784,0.00268987,784,0.00207547,784,0.00492576,784,0.0147063,
775.333,0.00200064,775.333,0.00261382,775.333,0.00218597,775.333,0.00512466,775.333,0.0156458,
766.667,0.00202881,766.667,0.00249505,766.667,0.00219099,766.667,0.00524066,766.667,0.0167323,
758,0.00189065,758,0.00241493,758,0.00214271,758,0.00503532,758,0.017675,
749.333,0.0019743,749.333,0.00244213,749.333,0.00209539,749.333,0.00502275,749.333,0.0187071,
740.667,0.00179943,740.667,0.00234548,740.667,0.00209942,740.667,0.00476593,740.667,0.0196199,
732,0.00181906,732,0.00222976,732,0.00190526,732,0.00454795,732,0.0203237,
723.333,0.00181165,723.333,0.00213761,723.333,0.00193043,723.333,0.00448541,723.333,0.0211183,
714.667,0.00181989,714.667,0.00216984,714.667,0.00190126,714.667,0.00442617,714.667,0.0217576,
706,0.00183099,706,0.00210772,706,0.00178571,706,0.00436569,706,0.022148,
697.333,0.00191943,697.333,0.00209401,697.333,0.00174176,697.333,0.00444566,697.333,0.0226946,
688.667,0.00202426,688.667,0.00216396,688.667,0.0018404,688.667,0.00463483,688.667,0.0231393,
680,0.00252205,680,0.0027019,680,0.00225994,680,0.00520238,680,0.0234712,
671.333,0.00279644,671.333,0.00302509,671.333,0.00256166,671.333,0.0056004,671.333,0.023886,
662.667,0.00238845,662.667,0.00257332,662.667,0.00215668,662.667,0.00527815,662.667,0.0240859,
654,0.00213459,654,0.00237229,654,0.00192778,654,0.00517618,654,0.0242052,
645.333,0.00208665,645.333,0.00230101,645.333,0.00180422,645.333,0.00521388,645.333,0.024009,
636.667,0.00225794,636.667,0.0024106,636.667,0.00189668,636.667,0.00526083,636.667,0.0237546,
628,0.00280613,628,0.00284227,628,0.00206254,628,0.00536717,628,0.0233642,
619.333,0.00335877,619.333,0.00340098,619.333,0.00236745,619.333,0.00551262,619.333,0.0228151,
610.667,0.00426841,610.667,0.00413521,610.667,0.00265895,610.667,0.00567165,610.667,0.0222892,
602,0.00543049,602,0.00517558,602,0.00318157,602,0.00570667,602,0.0217426,
593.333,0.00752855,593.333,0.00684311,593.333,0.00376699,593.333,0.00580078,593.333,0.021226,
584.667,0.012399,584.667,0.0106095,584.667,0.005015,584.667,0.00592974,584.667,0.0207554,
576,0.0255436,576,0.0200741,576,0.00738024,576,0.00623457,576,0.0200934,
567.333,0.0601283,567.333,0.0446742,567.333,0.0126042,567.333,0.00677713,567.333,0.0196199,
558.667,0.132618,558.667,0.0985433,558.667,0.0228618,558.667,0.00772313,558.667,0.0194299,
550,0.241749,550,0.185557,550,0.0405854,550,0.0092664,550,0.0197177,
[...]
Common Interval nm Changed: 2024-09-12 8:45:07 AM, Old:    1.000, New:    0.667
Source changeover Changed: 2024-09-12 8:45:07 AM, Old:   350.00, New:   300.00
Detector changeover Changed: 2024-09-12 8:45:07 AM, Old:   800.00, New:   900.00
Grating changeover Changed: 2024-09-12 8:45:07 AM, Old:   800.00, New:   900.00
Baseline Correction Changed: 2024-09-12 8:45:07 AM, Old:0, New:2
Sipper Type Changed: 2024-09-12 8:45:07 AM, Old:Internal RSA, New:External sipper
End Method Modifications
<Current Wavelength> , 250.000
<SBW (nm)> , 2.00
<Energy> , 52.48
<Slit Height> , Full

non-imine polymer t=48hrs FeCl3 50uM,
non-imine polymer t=48hrs FeCl3 50uM
Collection Time: 2024-09-12 9:06:40 AM
Operator Name  :
Scan Version 6.4.0.1610
Parameter List :
Instrument  Cary 7000
Instrument Version  3.07
Method Log     :
Method Name    :
Date/Time stamp: 2024-09-12 8:41:50 AM
Method Modifications:
ConcentrationReportSelected Changed: 2024-09-12 8:41:51 AM, Old:Choice 0, New:Choice 1
ConcentrationReportSelected Changed: 2024-09-12 8:41:51 AM, Old:ON, New:Choice 0
MCAReportSelected Changed: 2024-09-12 8:41:51 AM, Old:Choice 0, New:Choice 1
MCAReportSelected Changed: 2024-09-12 8:41:51 AM, Old:ON, New:Choice 0
X Start nm Changed: 2024-09-12 8:45:07 AM, Old:800.000, New:1200.000
X Stop nm Changed: 2024-09-12 8:45:07 AM, Old:200.000, New:250.000
UVVIS Scan Rate nm Changed: 2024-09-12 8:45:07 AM, Old:  602.007, New:  600.000
NIR Scan Rate nm Changed: 2024-09-12 8:45:07 AM, Old:    0.004, New:   12.000
Common Interval nm Changed: 2024-09-12 8:45:07 AM, Old:    1.000, New:    0.667
Source changeover Changed: 2024-09-12 8:45:07 AM, Old:   350.00, New:   300.00
Detector changeover Changed: 2024-09-12 8:45:07 AM, Old:   800.00, New:   900.00
Grating changeover Changed: 2024-09-12 8:45:07 AM, Old:   800.00, New:   900.00
Baseline Correction Changed: 2024-09-12 8:45:07 AM, Old:0, New:2
Sipper Type Changed: 2024-09-12 8:45:07 AM, Old:Internal RSA, New:External sipper
End Method Modifications
<Current Wavelength> , 250.000
<SBW (nm)> , 2.00
<Energy> , 52.48
<Slit Height> , Full

non-imine polymer t=48hrs FeCl3 100uM,
non-imine polymer t=48hrs FeCl3 100uM
Collection Time: 2024-09-12 9:10:50 AM
Operator Name  :
Scan Version 6.4.0.1610
Parameter List :
Instrument  Cary 7000
Instrument Version  3.07
Method Log     :
Method Name    :
Date/Time stamp: 2024-09-12 8:41:50 AM
Method Modifications:
ConcentrationReportSelected Changed: 2024-09-12 8:41:51 AM, Old:Choice 0, New:Choice 1
ConcentrationReportSelected Changed: 2024-09-12 8:41:51 AM, Old:ON, New:Choice 0
MCAReportSelected Changed: 2024-09-12 8:41:51 AM, Old:Choice 0, New:Choice 1
MCAReportSelected Changed: 2024-09-12 8:41:51 AM, Old:ON, New:Choice 0
X Start nm Changed: 2024-09-12 8:45:07 AM, Old:800.000, New:1200.000
X Stop nm Changed: 2024-09-12 8:45:07 AM, Old:200.000, New:250.000
UVVIS Scan Rate nm Changed: 2024-09-12 8:45:07 AM, Old:  602.007, New:  600.000
NIR Scan Rate nm Changed: 2024-09-12 8:45:07 AM, Old:    0.004, New:   12.000
Common Interval nm Changed: 2024-09-12 8:45:07 AM, Old:    1.000, New:    0.667
Source changeover Changed: 2024-09-12 8:45:07 AM, Old:   350.00, New:   300.00
Detector changeover Changed: 2024-09-12 8:45:07 AM, Old:   800.00, New:   900.00
Grating changeover Changed: 2024-09-12 8:45:07 AM, Old:   800.00, New:   900.00
Baseline Correction Changed: 2024-09-12 8:45:07 AM, Old:0, New:2
Sipper Type Changed: 2024-09-12 8:45:07 AM, Old:Internal RSA, New:External sipper
End Method Modifications
<Current Wavelength> , 250.000
<SBW (nm)> , 2.00
<Energy> , 52.48
<Slit Height> , Full