Folder: data-visualizer/UV-Vis data/2024_09 (part 2)

File: 2024_09_06_imine 48hrs post neutralization.csv
imine polymer 0% TFA,,imine polymer 0.017% TFA,,imine polymer 0.05% TFA,,imine polymer 0.25% TFA,,imine polymer 1.0% TFA,,
Wavelength (nm),Abs,Wavelength (nm),Abs,Wavelength (nm),Abs,Wavelength (nm),Abs,Wavelength (nm),Abs,
1400,0.000319421,1400,0.0040426,1400,0.00364156,1400,0.0076966,1400,0.00639413,
1390,0.000493615,1390,0.00167637,1390,0.00148684,1390,0.00608389,1390,0.00595937,
1380,0.000481565,1380,0.00143362,1380,0.00107552,1380,0.00445128,1380,0.00536678,
1370,0.000406548,1370,0.00136423,1370,0.00101641,1370,0.00383587,1370,0.00530412,
1360,0.000500923,1360,0.00105668,1360,0.000713096,1360,0.00292797,1360,0.00408433,
1350,0.000403543,1350,0.000517588,1350,2.20554e-05,1350,0.00139547,1350,0.00292078,
1340,0.000321726,1340,0.000180048,1340,-0.000301881,1340,0.000225733,1340,0.000516784,
1330,0.000416653,1330,0.000189863,1330,-0.000337991,1330,0.000168809,1330,0.000175206,
1320,0.000501571,1320,0.000235756,1320,-0.000242691,1320,0.000172746,1320,4.31541e-05,
1310,0.000561182,1310,0.00025873,1310,-0.000185252,1310,0.000259092,1310,6.8422e-05,
1300,0.00055338,1300,0.000243655,1300,-0.000159325,1300,0.000302583,1300,-6.96794e-05,
1290,0.000562296,1290,0.000295641,1290,-7.41828e-05,1290,0.000604003,1290,0.000117279,
1280,0.000591094,1280,0.000345767,1280,1.4134e-05,1280,0.000813607,1280,0.000174248,
1270,0.000572224,1270,0.000391987,1270,2.2159e-05,1270,0.000877462,1270,0.000197166,
1260,0.000566418,1260,0.000478196,1260,5.20857e-05,1260,0.000798487,1260,0.000174947,
1250,0.000551022,1250,0.000544801,1250,6.82408e-05,1250,0.000714471,1250,0.000182016,
1240,0.000506158,1240,0.000611961,1240,5.63056e-05,1240,0.000642706,1240,0.000211514,
1230,0.000488743,1230,0.00068652,1230,0.0001042812,1230,0.000695051,1230,0.000228271,
1220,0.000476952,1220,0.000747894,1220,0.000142344,1220,0.000871834,1220,0.00038424,
1210,0.00049289,1210,0.000768302,1210,0.000175024,1210,0.0013229,1210,0.000625493,
1200,0.000501986,1200,0.000795453,1200,0.000264661,1200,0.0019186,1200,0.00106724,
1190,0.000546045,1190,0.000829375,1190,0.000463399,1190,0.00351286,1190,0.00211118,
1180,0.000622097,1180,0.00108868,1180,0.000759822,1180,0.00441629,1180,0.00603005,
1170,0.000524171,1170,0.00094099,1170,0.000385043,1170,0.00276056,1170,0.00437469,
1160,0.000507662,1160,0.000847038,1160,0.000136182,1160,0.00141578,1160,0.00218748,
1150,0.000455936,1150,0.000816952,1150,9.26299e-05,1150,0.000198824,1150,-0.00106881,
1140,0.000381856,1140,-0.000275495,1140,-0.000991232,1140,-0.00395553,1140,-0.00913968,
1130,-5.08888e-05,1130,-0.000320402,1130,-0.00125232,1130,-0.00354276,1130,-0.00614034,
1120,0.000326933,1120,0.000554547,1120,-0.000391892,1120,-0.000698566,1120,-0.00102961,
1110,0.000369964,1110,0.000816563,1110,-0.000187115,1110,1.74993e-05,1110,-6.11901e-05,
1100,0.000364109,1100,0.000941249,1100,-0.000176713,1100,0.000123701,1100,-4.57122e-05,
1090,0.000307867,1090,0.00107866,1090,-0.000212368,1090,0.000186471,1090,1.86124e-05,
1080,0.000360664,1080,0.00137244,1080,-0.00013764,1080,0.000348902,1080,0.000148222,
1070,0.000393801,1070,0.00163085,1070,-0.000107569,1070,0.000488691,1070,0.000264402,
1060,0.00042181,1060,0.00186793,1060,-8.86245e-05,1060,0.000594049,1060,0.00032284,
1050,0.000385665,1050,0.00211313,1050,-0.000123924,1050,0.000708274,1050,0.000419763,
1040,0.000362684,1040,0.00240428,1040,-0.000117041,1040,0.00078744,1040,0.000516784,
1030,0.000368358,1030,0.00268101,1030,-0.0001468,1030,0.000795375,1030,0.000647761,
1020,0.000384162,1020,0.00306382,1020,-0.000188719,1020,0.00082494,1020,0.000831735,
1010,0.000375794,1010,0.00344481,1010,-0.000205072,1010,0.000890432,1010,0.0010497,
1000,0.000371726,1000,0.00380435,1000,-0.000159791,1000,0.000825148,1000,0.00116719,
990,0.000385639,990,0.00419799,990,-0.000148301,990,0.00090296,990,0.0013022,
980,0.000310302,980,0.0045027,980,-0.000191255,980,0.000884907,980,0.0013613,
970,0.000224904,970,0.00481713,970,-0.000237723,970,0.000851732,970,0.00148495,
960,0.000199756,960,0.00526937,960,-0.000153114,960,0.0009935,960,0.0017351,
950,0.000221381,950,0.00562618,950,-0.000165587,950,0.000963456,950,0.00197898,
940,0.000304215,940,0.0060809,940,-7.1957e-05,940,0.000963768,940,0.00227412,
930,0.000321856,930,0.00655399,930,-6.26913e-05,930,0.000937332,930,0.00258225,
920,0.000322814,920,0.00710497,920,1.65671e-06,920,0.000936606,920,0.00295615,
910,0.000287429,910,0.00777763,910,2.69222e-05,910,0.00101657,910,0.00344794,
900,0.000263547,900,0.0085768,900,5.72635e-05,900,0.000947112,900,0.00427583,
890,1.07169e-05,890,0.00944028,890,0.000643095,890,-6.45548e-05,890,0.00528384,
880,-0.000433012,880,0.0113438,880,-9.19372e-05,880,0.000137424,880,0.00597906,
870,0.000314214,870,0.0117708,870,0.000287352,870,-0.000100788,870,0.00585318,
860,0.000329446,860,0.0133898,860,0.000589539,860,0.000595034,860,0.00712042,
850,0.000449043,850,0.0144588,850,0.000712604,850,0.000575619,850,0.00818789,
840,0.000683072,840,0.0160327,840,0.000890587,840,0.000781034,840,0.00929676,
830,0.00041129,830,0.0170744,830,0.000793949,830,0.000670835,830,0.0100228,
820,0.000444975,820,0.0179836,820,0.000753365,820,0.000750046,820,0.0103098,
810,0.000576656,810,0.018919,810,0.000900496,810,0.000876114,810,0.0109489,
800,0.000472158,800,0.0196113,800,0.000829324,800,0.000684913,800,0.0110588,
790,0.000504059,790,0.0204311,790,0.000982863,790,0.000764256,790,0.0113457,
780,0.000455392,780,0.0214419,780,0.000990101,780,0.000835548,780,0.011865,
770,0.000575542,770,0.0228408,770,0.00111704,770,0.00100678,770,0.0125193,
760,0.000511705,760,0.0241665,760,0.00109696,760,0.00102832,760,0.0132063,
750,0.000587413,750,0.0258101,750,0.0013028,750,0.00121856,750,0.0141707,
740,0.00067322,740,0.0276754,740,0.00147001,740,0.00134037,740,0.0152256,
730,0.000622434,730,0.0294497,730,0.00156327,730,0.00143822,730,0.0161419,
720,0.000604781,720,0.0311033,720,0.00159969,720,0.00151991,720,0.0171896,
710,0.000681646,710,0.0325656,710,0.00169144,710,0.00151874,710,0.0179846,
700,0.00073358,700,0.0333241,700,0.00178324,700,0.00167621,700,0.0187042,
690,0.000824837,690,0.0328935,690,0.001832,690,0.00178846,690,0.0188403,
680,0.000984912,680,0.031659,680,0.00191845,680,0.00202277,680,0.0187425,
670,0.00104407,670,0.0299542,670,0.00195607,670,0.00215225,670,0.018207,
660,0.000969839,660,0.0283984,660,0.00196468,660,0.00215012,660,0.0175869,
650,0.00100987,650,0.0273304,650,0.00199908,650,0.0023503,650,0.0172735,
640,0.001196,640,0.0266884,640,0.00215356,640,0.00265278,640,0.0173084,
630,0.00136953,630,0.0261884,630,0.00227334,630,0.00292336,630,0.0173551,
620,0.00166741,620,0.0259676,620,0.00256048,620,0.00336211,620,0.0176842,
610,0.00231438,610,0.0259782,610,0.00293501,610,0.00404639,610,0.0181398,
600,0.00341718,600,0.0262037,600,0.00345139,600,0.00501969,600,0.0187127,
590,0.00573576,590,0.0267489,590,0.0044386,590,0.00674868,590,0.0196064,
580,0.0116426,580,0.0274597,580,0.00625802,580,0.0104328,580,0.0206575,
570,0.0265727,570,0.0282171,570,0.00978194,570,0.0187029,570,0.021731,
560,0.0633886,560,0.0291164,560,0.0163333,560,0.0371742,560,0.02286,
550,0.141713,550,0.030081,550,0.0279534,550,0.0735846,550,0.0241265,
540,0.271669,540,0.0313325,540,0.0472784,540,0.130496,540,0.0254678,
530,0.427482,530,0.0326235,530,0.0757091,530,0.196429,530,0.0268827,
520,0.573764,520,0.0341636,520,0.113554,520,0.259342,520,0.028383,
[...]
NIR Scan Rate nm Changed: 2024-09-06 2:26:10 PM, Old:    0.004, New:   12.000
Common Interval nm Changed: 2024-09-06 2:26:10 PM, Old:    1.000, New:    0.667
Source changeover Changed: 2024-09-06 2:26:10 PM, Old:   350.00, New:   300.00
Detector changeover Changed: 2024-09-06 2:26:10 PM, Old:   800.00, New:   900.00
Grating changeover Changed: 2024-09-06 2:26:10 PM, Old:   800.00, New:   900.00
Baseline Correction Changed: 2024-09-06 2:26:10 PM, Old:0, New:2
Sipper Type Changed: 2024-09-06 2:26:10 PM, Old:Internal RSA, New:External sipper
End Method Modifications
<Current Wavelength> , 300.000
<SBW (nm)> , 2.00
<Energy> , 45.71
<Slit Height> , Full

imine polymer 0.25% TFA,
imine polymer 0.25% TFA
Collection Time: 2024-09-06 2:51:50 PM
Operator Name  :
Scan Version 6.4.0.1610
Parameter List :
Instrument  Cary 7000
Instrument Version  3.07
Method Log     :
Method Name    :
Date/Time stamp: 2024-09-06 2:24:00 PM
Method Modifications:
ConcentrationReportSelected Changed: 2024-09-06 2:24:01 PM, Old:Choice 0, New:Choice 1
ConcentrationReportSelected Changed: 2024-09-06 2:24:01 PM, Old:ON, New:Choice 0
MCAReportSelected Changed: 2024-09-06 2:24:01 PM, Old:Choice 0, New:Choice 1
MCAReportSelected Changed: 2024-09-06 2:24:01 PM, Old:ON, New:Choice 0
X Start nm Changed: 2024-09-06 2:26:10 PM, Old:800.000, New:1400.000
X Stop nm Changed: 2024-09-06 2:26:10 PM, Old:200.000, New:300.000
UVVIS Scan Rate nm Changed: 2024-09-06 2:26:10 PM, Old:  602.007, New:  600.000
NIR Scan Rate nm Changed: 2024-09-06 2:26:10 PM, Old:    0.004, New:   12.000
Common Interval nm Changed: 2024-09-06 2:26:10 PM, Old:    1.000, New:    0.667
Source changeover Changed: 2024-09-06 2:26:10 PM, Old:   350.00, New:   300.00
Detector changeover Changed: 2024-09-06 2:26:10 PM, Old:   800.00, New:   900.00
Grating changeover Changed: 2024-09-06 2:26:10 PM, Old:   800.00, New:   900.00
Baseline Correction Changed: 2024-09-06 2:26:10 PM, Old:0, New:2
Sipper Type Changed: 2024-09-06 2:26:10 PM, Old:Internal RSA, New:External sipper
End Method Modifications
<Current Wavelength> , 300.000
<SBW (nm)> , 2.00
<Energy> , 45.71
<Slit Height> , Full

imine polymer 1.0% TFA,
imine polymer 1.0% TFA
Collection Time: 2024-09-06 2:56:30 PM
Operator Name  :
Scan Version 6.4.0.1610
Parameter List :
Instrument  Cary 7000
Instrument Version  3.07
Method Log     :
Method Name    :
Date/Time stamp: 2024-09-06 2:24:00 PM
Method Modifications:
ConcentrationReportSelected Changed: 2024-09-06 2:24:01 PM, Old:Choice 0, New:Choice 1
ConcentrationReportSelected Changed: 2024-09-06 2:24:01 PM, Old:ON, New:Choice 0
MCAReportSelected Changed: 2024-09-06 2:24:01 PM, Old:Choice 0, New:Choice 1
MCAReportSelected Changed: 2024-09-06 2:24:01 PM, Old:ON, New:Choice 0
X Start nm Changed: 2024-09-06 2:26:10 PM, Old:800.000, New:1400.000
X Stop nm Changed: 2024-09-06 2:26:10 PM, Old:200.000, New:300.000
UVVIS Scan Rate nm Changed: 2024-09-06 2:26:10 PM, Old:  602.007, New:  600.000
NIR Scan Rate nm Changed: 2024-09-06 2:26:10 PM, Old:    0.004, New:   12.000
Common Interval nm Changed: 2024-09-06 2:26:10 PM, Old:    1.000, New:    0.667
Source changeover Changed: 2024-09-06 2:26:10 PM, Old:   350.00, New:   300.00
Detector changeover Changed: 2024-09-06 2:26:10 PM, Old:   800.00, New:   900.00
Grating changeover Changed: 2024-09-06 2:26:10 PM, Old:   800.00, New:   900.00
Baseline Correction Changed: 2024-09-06 2:26:10 PM, Old:0, New:2
Sipper Type Changed: 2024-09-06 2:26:10 PM, Old:Internal RSA, New:External sipper
End Method Modifications
<Current Wavelength> , 298.667
<SBW (nm)> , 2.00
<Energy> , 45.71
<Slit Height> , Full

File: 2024_09_06_non-imine 48hrs post neutralization.csv
non-imine polymer 0.0% TFA,,non-imine polymer 0.017% TFA,,non-imine polymer 0.05% TFA,,non-imine polymer 0.1% TFA,,non-imine polymer 0.25% TFA,,non-imine polymer 0.5% TFA,,non-imine polymer 1.0% TFA,,
Wavelength (nm),Abs,Wavelength (nm),Abs,Wavelength (nm),Abs,Wavelength (nm),Abs,Wavelength (nm),Abs,Wavelength (nm),Abs,Wavelength (nm),Abs,
1400,0.00158348,1400,0.003395,1400,0.00310285,1400,0.00650816,1400,0.00404143,1400,0.0086148,1400,0.00811045,
1386,0.000160445,1386,0.000929835,1386,0.00102095,1386,0.00455444,1386,0.0026433,1386,0.00683611,1386,0.00616795,
1372,0.000100501,1372,0.000742293,1372,0.000759692,1372,0.00317435,1372,0.00198863,1372,0.00527144,1372,0.00510941,
1358,-9.14714e-05,1358,0.000379861,1358,0.000347995,1358,0.00227662,1358,0.00137441,1358,0.00395631,1358,0.00393904,
1344,-0.000491038,1344,-0.000339284,1344,-0.000467094,1344,-3.70154e-05,1344,-6.7303e-06,1344,0.00135592,1344,0.000909861,
1330,-0.000474696,1330,-0.000404409,1330,-0.000511102,1330,-0.000238137,1330,-0.000208073,1330,0.000838894,1330,0.000220915,
1316,-0.000400116,1316,-0.000316677,1316,-0.00043508,1316,-0.000168381,1316,-0.000157099,1316,0.000815319,1316,0.000158322,
1302,-0.000421426,1302,-0.000377616,1302,-0.000482143,1302,-0.000187012,1302,-0.000240311,1302,0.000624508,1302,-0.000104049,
1288,-0.000362925,1288,-0.000323454,1288,-0.000371046,1288,0.000230446,1288,-0.00010995,1288,0.000774966,1288,0.000183001,
1274,-0.000360545,1274,-0.000280048,1274,-0.0003547,1274,0.000508335,1274,-7.37687e-05,1274,0.000759589,1274,0.000173238,
1260,-0.000373115,1260,-0.000308399,1260,-0.000343061,1260,0.000494082,1260,-4.12603e-05,1260,0.000746364,1260,0.000175491,
1246,-0.00037684,1246,-0.000318695,1246,-0.000364477,1246,0.000379706,1246,-2.98196e-05,1246,0.00081257,1246,0.00016029,
1232,-0.000410047,1232,-0.00033168,1232,-0.000387288,1232,0.000346467,1232,-2.24167e-05,1232,0.000889031,1232,0.000137321,
1218,-0.000358011,1218,-0.000266026,1218,-0.000305244,1218,0.000720175,1218,0.000108061,1218,0.00114801,1218,0.000285331,
1204,-0.000311504,1204,-0.00021863,1204,-0.00021806,1204,0.00160801,1204,0.000313385,1204,0.00158275,1204,0.000651209,
1190,-0.000319988,1190,-7.81168e-05,1190,3.70171e-06,1190,0.00382287,1190,0.000929083,1190,0.00279566,1190,0.00180286,
1176,-0.000286567,1176,4.18596e-05,1176,0.000246686,1176,0.00297152,1176,0.00243416,1176,0.00603661,1176,0.00587926,
1162,-0.000323247,1162,-0.000129928,1162,-0.000163258,1162,0.000956971,1162,0.00113622,1162,0.00306135,1162,0.00229544,
1148,-0.000335094,1148,-0.00027596,1148,-0.000509706,1148,-0.000549625,1148,-0.000132982,1148,0.000202268,1148,-0.00202767,
1134,-0.00109644,1134,-0.0015264,1134,-0.00204545,1134,-0.00481016,1134,-0.00293351,1134,-0.0051827,1134,-0.00900192,
1120,-0.000610686,1120,-0.000646512,1120,-0.000818519,1120,-0.00131612,1120,-9.19372e-05,1120,0.000122095,1120,-0.0012455,
1106,-0.000482609,1106,-0.000496261,1106,-0.000627695,1106,-0.000632658,1106,0.000313748,1106,0.00081633,1106,-0.00033049,
1092,-0.000507069,1092,-0.000515032,1092,-0.000640774,1092,-0.000591919,1092,0.000323358,1092,0.000777352,1092,-0.000384909,
1078,-0.000438804,1078,-0.000463112,1078,-0.000585922,1078,-0.000522323,1078,0.000381805,1078,0.00086426,1078,-0.000299863,
1064,-0.00048597,1064,-0.000471593,1064,-0.000594866,1064,-0.000519117,1064,0.000233891,1064,0.00079522,1064,-0.00029381,
1050,-0.000415478,1050,-0.000442063,1050,-0.000545851,1050,-0.000495123,1050,0.000223894,1050,0.000894997,1050,-0.000258162,
1036,-0.000437615,1036,-0.000474645,1036,-0.000607429,1036,-0.000537009,1036,0.000144416,1036,0.000854741,1036,-0.000268562,
1022,-0.000468645,1022,-0.000486746,1022,-0.000615805,1022,-0.000509292,1022,0.000118781,1022,0.000928253,1022,-0.000244243,
1008,-0.000471386,1008,-0.000464405,1008,-0.00060898,1008,-0.000519479,1008,0.000186186,1008,0.00100341,1008,-0.000135414,
994,-0.000452872,994,-0.000457216,994,-0.000609549,994,-0.000557381,994,0.000198513,994,0.000979049,994,-0.000230014,
980,-0.000466939,980,-0.000507069,980,-0.000644393,980,-0.00060319,980,0.000202061,980,0.000951185,980,-0.000309641,
966,-0.000545334,966,-0.000580596,966,-0.000679906,966,-0.000708852,966,0.000166116,966,0.000866231,966,-0.000355838,
952,-0.000489797,952,-0.000525168,952,-0.000598072,952,-0.000627178,952,0.000189889,952,0.0010469,952,-0.000301415,
938,-0.000428615,938,-0.000497502,938,-0.000541818,938,-0.000622008,938,0.000250234,938,0.00106473,938,-0.000317608,
924,-0.00036846,924,-0.000435029,924,-0.000492434,924,-0.000475369,924,0.000320897,924,0.00115299,924,-0.000242846,
910,-0.000340784,910,-0.00041222,910,-0.000499933,910,-0.000243105,910,0.000391054,910,0.00130719,910,-6.23807e-05,
896,-3.76366e-05,896,0.000440803,896,-0.000402702,896,0.0010387,896,-9.03326e-05,896,0.00230098,896,0.00113967,
882,-0.000157617,882,-0.000396392,882,-0.000921287,882,-0.000707301,882,0.000491827,882,0.00215418,882,-0.000109432,
868,0.000866802,868,0.000561726,868,-9.28172e-05,868,-0.000240725,868,0.00107767,868,0.00135317,868,-0.000321643,
854,0.000717452,854,-3.598e-05,854,5.84286e-05,854,8.98854e-05,854,0.00129384,854,0.00217525,854,0.00071919,
840,0.000721653,840,0.000282042,840,0.000238993,840,0.000123079,840,0.00140095,840,0.00243929,840,0.000804089,
826,0.000690695,826,0.000291703,826,6.53411e-05,826,0.00016912,826,0.00155124,826,0.00256085,826,0.000825485,
812,0.000605999,812,0.000202812,812,-0.000142039,812,4.38272e-05,812,0.00179054,812,0.00260319,812,0.000612168,
798,0.000625337,798,0.00019121,798,-9.61816e-05,798,-9.16267e-05,798,0.00214232,798,0.00271847,798,0.000633166,
784,0.000665702,784,0.000164692,784,-2.14331e-05,784,-0.000101927,784,0.00254413,784,0.00295093,784,0.000648695,
770,0.000690098,770,0.000287896,770,3.021e-05,770,1.57907e-05,770,0.00272941,770,0.00306591,770,0.000696762,
756,0.000644936,756,0.000213819,756,-0.000139658,756,-6.88512e-05,756,0.00266945,756,0.00318373,756,0.000661865,
742,0.000707081,742,0.000231301,742,-9.5457e-05,742,-4.77311e-05,742,0.00266135,742,0.00336952,742,0.000680713,
728,0.000644184,728,0.000200145,728,-0.000187115,728,-0.000117455,728,0.00261606,728,0.00350256,728,0.000600192,
714,0.000765449,714,0.00023459,714,-0.00011083,714,-9.30242e-05,714,0.00274092,714,0.00369725,714,0.000580803,
700,0.000827404,700,0.000220397,700,-0.000134638,700,-0.000164345,700,0.00269281,700,0.00381203,700,0.000679572,
686,0.0010148,686,0.000481668,686,5.23964e-05,686,7.01049e-05,686,0.00286903,686,0.00419461,686,0.000897954,
672,0.00152446,672,0.000953261,672,0.000426603,672,0.000573597,672,0.00327686,672,0.0049199,672,0.00135678,
658,0.0011737,658,0.000553147,658,0.00015726,658,0.000162879,658,0.00284412,658,0.004702,658,0.00107171,
644,0.00134595,644,0.000695414,644,0.000250985,644,0.000195872,644,0.00300645,644,0.00510839,644,0.00130952,
630,0.00180427,630,0.001105,630,0.000606232,630,0.000612428,630,0.00366877,630,0.00600399,630,0.00189323,
616,0.00293399,616,0.00216805,616,0.00167016,616,0.0015727,616,0.00550274,616,0.00794862,616,0.0033673,
602,0.00583636,602,0.00498876,602,0.0042821,602,0.00406957,602,0.00984867,602,0.0123515,602,0.00663215,
588,0.0158432,588,0.0142665,588,0.0129898,588,0.012148,588,0.019654,588,0.0230187,588,0.0147977,
574,0.0649166,574,0.0599522,574,0.0551032,574,0.0511006,574,0.0571363,574,0.0652836,574,0.0463144,
[...]
NIR Scan Rate nm Changed: 2024-09-06 2:26:10 PM, Old:    0.004, New:   12.000
Common Interval nm Changed: 2024-09-06 2:26:10 PM, Old:    1.000, New:    0.667
Source changeover Changed: 2024-09-06 2:26:10 PM, Old:   350.00, New:   300.00
Detector changeover Changed: 2024-09-06 2:26:10 PM, Old:   800.00, New:   900.00
Grating changeover Changed: 2024-09-06 2:26:10 PM, Old:   800.00, New:   900.00
Baseline Correction Changed: 2024-09-06 2:26:10 PM, Old:0, New:2
Sipper Type Changed: 2024-09-06 2:26:10 PM, Old:Internal RSA, New:External sipper
End Method Modifications
<Current Wavelength> , 300.000
<SBW (nm)> , 2.00
<Energy> , 45.71
<Slit Height> , Full

non-imine polymer 0.5% TFA,
non-imine polymer 0.5% TFA
Collection Time: 2024-09-06 3:25:18 PM
Operator Name  :
Scan Version 6.4.0.1610
Parameter List :
Instrument  Cary 7000
Instrument Version  3.07
Method Log     :
Method Name    :
Date/Time stamp: 2024-09-06 2:24:00 PM
Method Modifications:
ConcentrationReportSelected Changed: 2024-09-06 2:24:01 PM, Old:Choice 0, New:Choice 1
ConcentrationReportSelected Changed: 2024-09-06 2:24:01 PM, Old:ON, New:Choice 0
MCAReportSelected Changed: 2024-09-06 2:24:01 PM, Old:Choice 0, New:Choice 1
MCAReportSelected Changed: 2024-09-06 2:24:01 PM, Old:ON, New:Choice 0
X Start nm Changed: 2024-09-06 2:26:10 PM, Old:800.000, New:1400.000
X Stop nm Changed: 2024-09-06 2:26:10 PM, Old:200.000, New:300.000
UVVIS Scan Rate nm Changed: 2024-09-06 2:26:10 PM, Old:  602.007, New:  600.000
NIR Scan Rate nm Changed: 2024-09-06 2:26:10 PM, Old:    0.004, New:   12.000
Common Interval nm Changed: 2024-09-06 2:26:10 PM, Old:    1.000, New:    0.667
Source changeover Changed: 2024-09-06 2:26:10 PM, Old:   350.00, New:   300.00
Detector changeover Changed: 2024-09-06 2:26:10 PM, Old:   800.00, New:   900.00
Grating changeover Changed: 2024-09-06 2:26:10 PM, Old:   800.00, New:   900.00
Baseline Correction Changed: 2024-09-06 2:26:10 PM, Old:0, New:2
Sipper Type Changed: 2024-09-06 2:26:10 PM, Old:Internal RSA, New:External sipper
End Method Modifications
<Current Wavelength> , 300.000
<SBW (nm)> , 2.00
<Energy> , 45.71
<Slit Height> , Full

non-imine polymer 1.0% TFA,
non-imine polymer 1.0% TFA
Collection Time: 2024-09-06 3:30:01 PM
Operator Name  :
Scan Version 6.4.0.1610
Parameter List :
Instrument  Cary 7000
Instrument Version  3.07
Method Log     :
Method Name    :
Date/Time stamp: 2024-09-06 2:24:00 PM
Method Modifications:
ConcentrationReportSelected Changed: 2024-09-06 2:24:01 PM, Old:Choice 0, New:Choice 1
ConcentrationReportSelected Changed: 2024-09-06 2:24:01 PM, Old:ON, New:Choice 0
MCAReportSelected Changed: 2024-09-06 2:24:01 PM, Old:Choice 0, New:Choice 1
MCAReportSelected Changed: 2024-09-06 2:24:01 PM, Old:ON, New:Choice 0
X Start nm Changed: 2024-09-06 2:26:10 PM, Old:800.000, New:1400.000
X Stop nm Changed: 2024-09-06 2:26:10 PM, Old:200.000, New:300.000
UVVIS Scan Rate nm Changed: 2024-09-06 2:26:10 PM, Old:  602.007, New:  600.000
NIR Scan Rate nm Changed: 2024-09-06 2:26:10 PM, Old:    0.004, New:   12.000
Common Interval nm Changed: 2024-09-06 2:26:10 PM, Old:    1.000, New:    0.667
Source changeover Changed: 2024-09-06 2:26:10 PM, Old:   350.00, New:   300.00
Detector changeover Changed: 2024-09-06 2:26:10 PM, Old:   800.00, New:   900.00
Grating changeover Changed: 2024-09-06 2:26:10 PM, Old:   800.00, New:   900.00
Baseline Correction Changed: 2024-09-06 2:26:10 PM, Old:0, New:2
Sipper Type Changed: 2024-09-06 2:26:10 PM, Old:Internal RSA, New:External sipper
End Method Modifications
<Current Wavelength> , 300.000
<SBW (nm)> , 2.00
<Energy> , 45.71
<Slit Height> , Full