Folder: data-visualizer/UV-Vis data/2024_09 (part 3)

File: 2024_09_11_imine polymer t=0hrs FeCl3 solution doping.csv
t=0hrs FeCl3 0uM,,t=0hrs FeCl3 20uM,,t=0hrs FeCl3 50uM,,t=0hrs FeCl3 100uM,,t=0hrs FeCl3 5uM repeat,,
Wavelength (nm),Abs,Wavelength (nm),Abs,Wavelength (nm),Abs,Wavelength (nm),Abs,Wavelength (nm),Abs,
1400,0.00611327,1400,0.00607995,1400,0.00511457,1400,0.00545537,1400,0.00238528,
1390,0.00212447,1390,0.000882339,1390,0.000739311,1390,0.00029046,1390,-0.000977544,
1380,0.00181331,1380,0.00026663,1380,0.000144468,1380,0.000155059,1380,-0.00112071,
1370,0.00162601,1370,5.53218e-05,1370,-8.15849e-05,1370,0.000107388,1370,-0.00135173,
1360,0.00123102,1360,-0.00016155,1360,-0.000263594,1360,-0.000373322,1360,-0.00152526,
1350,0.000827301,1350,-0.000610014,1350,-0.000647236,1350,-0.000736194,1350,-0.00180608,
1340,0.000948799,1340,-0.000702029,1340,-0.000462905,1340,-0.000866522,1340,-0.00192372,
1330,0.000852407,1330,-0.000677838,1330,-0.000751027,1330,-0.00098054,1330,-0.00187805,
1320,0.000601955,1320,-0.000632503,1320,-0.0007333,1320,-0.000674582,1320,-0.00191408,
1310,0.000511912,1310,-0.000543731,1310,-0.000842392,1310,-0.000954867,1310,-0.00208858,
1300,0.000493019,1300,-0.000436942,1300,-0.000829216,1300,-0.000263646,1300,-0.00180866,
1290,0.000621449,1290,-0.000474386,1290,-0.000803637,1290,1.72404e-05,1290,-0.00186655,
1280,0.000516473,1280,-0.000533855,1280,-0.000530132,1280,0.000246556,1280,-0.001815,
1270,0.000485711,1270,-0.000633175,1270,-0.000559294,1270,0.000467675,1270,-0.00176628,
1260,0.000646958,1260,-0.000665432,1260,-0.00077387,1260,0.000201414,1260,-0.00174911,
1250,0.000533423,1250,-0.000528063,1250,-0.00067422,1250,2.93298e-05,1250,-0.0017951,
1240,0.000634385,1240,-0.000359149,1240,-0.000699962,1240,-6.16042e-05,1240,-0.00176633,
1230,0.00065655,1230,-0.000518083,1230,-0.000786325,1230,1.04581e-05,1230,-0.00179649,
1220,0.000716078,1220,-0.000548695,1220,-0.000825082,1220,0.00033157,1220,-0.00181861,
1210,0.000814126,1210,-0.000657368,1210,-0.000742086,1210,0.000276783,1210,-0.00181567,
1200,0.000725646,1200,-0.000669826,1200,-0.000770614,1200,0.000126782,1200,-0.00177747,
1190,0.00146443,1190,-0.000576408,1190,-0.000659849,1190,-0.00032511,1190,-0.00178417,
1180,0.000856505,1180,-0.000599467,1180,-0.000516842,1180,-0.000169158,1180,-0.00172549,
1170,0.000523367,1170,-0.000652251,1170,-0.000488297,1170,-0.000173712,1170,-0.00178912,
1160,0.000518728,1160,-0.000543576,1160,-0.000491297,1160,-0.00023762,1160,-0.00177561,
1150,0.000805489,1150,-5.69488e-06,1150,6.84997e-05,1150,0.000354342,1150,-0.00135859,
1140,0.000546589,1140,-0.000391789,1140,-0.000362925,1140,-0.000305399,1140,-0.0017685,
1130,0.000529717,1130,-0.00044439,1130,-0.000361787,1130,-0.000234722,1130,-0.00175406,
1120,0.000461352,1120,-0.000513998,1120,-0.000466629,1120,-0.000317556,1120,-0.00187826,
1110,0.000484415,1110,-0.000418633,1110,-0.000462853,1110,-0.000378547,1110,-0.00190857,
1100,0.000591716,1100,-0.000307623,1100,-0.000341457,1100,-0.00025335,1100,-0.00192186,
1090,0.000548274,1090,-0.00026732,1090,-0.000410875,1090,-0.000149233,1090,-0.00186635,
1080,0.000504163,1080,-0.000257955,1080,-0.00039753,1080,0.000157389,1080,-0.00179283,
1070,0.000570357,1070,-0.00026137,1070,-0.000350665,1070,0.000273002,1070,-0.00176009,
1060,0.000482809,1060,-9.0902e-05,1060,-0.000277978,1060,0.000288828,1060,-0.00174911,
1050,0.000480424,1050,4.73221e-05,1050,-0.000233791,1050,0.000420462,1050,-0.0016551,
1040,0.000407507,1040,-0.000112124,1040,-0.000185977,1040,0.000307375,1040,-0.0017275,
1030,0.000581166,1030,-6.2536e-05,1030,-5.55477e-05,1030,0.000402351,1030,-0.00172369,
1020,0.00060981,1020,4.74257e-05,1020,3.10643e-05,1020,0.000515255,1020,-0.00165618,
1010,0.000615616,1010,0.000176604,1010,0.000191469,1010,0.000612998,1010,-0.00162854,
1000,0.000663265,1000,0.000166064,1000,0.000217005,1000,0.000619064,1000,-0.00160878,
990,0.000802455,990,0.000252384,990,0.000335612,990,0.000684291,990,-0.00160661,
980,0.000959306,980,0.000385017,980,0.00057536,980,0.000830646,980,-0.0014649,
970,0.00100505,970,0.000316079,970,0.000583421,970,0.00100533,970,-0.00147837,
960,0.00105909,960,0.000559342,960,0.000925088,960,0.0012564,960,-0.00136138,
950,0.00095915,950,0.000692562,950,0.00110121,950,0.00147175,950,-0.00121886,
940,0.000877825,940,0.000874869,940,0.00139168,940,0.00158504,940,-0.00123796,
930,0.000919822,930,0.00117015,930,0.00165504,930,0.00183931,930,-0.00117043,
920,0.000986365,920,0.00162877,920,0.00207266,920,0.00216448,920,-0.00105306,
910,0.000979983,910,0.0021368,910,0.00269466,910,0.00270026,910,-0.000945568,
900,0.000974898,900,0.00280821,900,0.0034852,900,0.00333073,900,-0.000830766,
890,0.00285543,890,0.00528575,890,0.00652009,890,0.00501382,890,0.002621,
880,0.00194624,880,0.00593476,880,0.00733311,880,0.00679814,880,0.00145882,
870,0.00128816,870,0.00656455,870,0.00937584,870,0.00646118,870,0.00113723,
860,0.00195038,860,0.00908167,860,0.0114753,860,0.00928591,860,0.00237729,
850,0.00197222,850,0.0111995,850,0.0136232,850,0.0102835,850,0.00297486,
840,0.00236472,840,0.014046,840,0.0166588,840,0.0126155,840,0.00328998,
830,0.00229806,830,0.0166015,830,0.0195178,830,0.0148102,830,0.00358025,
820,0.00267541,820,0.0196287,820,0.023001,820,0.0176097,820,0.00427225,
810,0.00267877,810,0.0229732,810,0.0269252,810,0.0209047,810,0.00466971,
800,0.00254234,800,0.0268822,800,0.0312421,800,0.0249588,800,0.00522022,
790,0.00263038,790,0.0315208,790,0.0367133,790,0.0299069,790,0.00598121,
780,0.00267122,780,0.0372616,780,0.043261,780,0.0361505,780,0.0072633,
770,0.00255674,770,0.0436759,770,0.0511007,770,0.0436455,770,0.00847298,
760,0.00268935,760,0.0516581,760,0.0613787,760,0.0533878,760,0.0101113,
750,0.00259345,750,0.0609866,750,0.0741722,750,0.0657766,750,0.0120543,
740,0.00264194,740,0.07224,740,0.0906491,740,0.0816279,740,0.0146901,
730,0.00253885,730,0.0859867,730,0.111855,730,0.102126,730,0.0178137,
720,0.0027323,720,0.102269,720,0.138728,720,0.128596,720,0.0215688,
710,0.00273089,710,0.121711,710,0.172167,710,0.161954,710,0.0261769,
700,0.00281759,700,0.144118,700,0.212476,700,0.202679,700,0.0314677,
690,0.00272558,690,0.169226,690,0.259248,690,0.250384,690,0.0373947,
680,0.00288187,680,0.196855,680,0.311971,680,0.304566,680,0.0441347,
670,0.00304161,670,0.226387,670,0.369332,670,0.363777,670,0.0513872,
660,0.00293647,660,0.256864,660,0.42959,660,0.426248,660,0.0588792,
650,0.00293592,650,0.288082,650,0.491966,650,0.49142,650,0.0666757,
640,0.00312454,640,0.319425,640,0.555191,640,0.557701,640,0.0747137,
630,0.00319242,630,0.3498,630,0.618681,630,0.624411,630,0.0826334,
620,0.00344888,620,0.378656,620,0.680688,620,0.690488,620,0.0902471,
610,0.00386332,610,0.40534,610,0.739865,610,0.754278,610,0.0975363,
600,0.00457204,600,0.428647,600,0.793195,600,0.813046,600,0.104005,
590,0.00573898,590,0.448032,590,0.838265,590,0.863939,590,0.110301,
580,0.00855365,580,0.462902,580,0.872486,580,0.903966,580,0.116947,
570,0.0157137,570,0.473922,570,0.893779,570,0.930173,570,0.125545,
560,0.0335458,560,0.483102,560,0.901342,560,0.941748,560,0.141079,
550,0.0744447,550,0.494614,550,0.895898,550,0.939407,550,0.173036,
540,0.15715,540,0.515126,540,0.878832,540,0.924327,540,0.235199,
530,0.285675,530,0.547732,530,0.851646,530,0.89768,530,0.332177,
520,0.435898,520,0.586703,520,0.815404,520,0.85978,520,0.446037,
510,0.577471,510,0.623161,510,0.771364,510,0.812882,510,0.555059,
[...]
NIR Scan Rate nm Changed: 2024-09-11 10:27:39 AM, Old:    0.004, New:   12.000
Common Interval nm Changed: 2024-09-11 10:27:39 AM, Old:    1.000, New:    0.667
Source changeover Changed: 2024-09-11 10:27:39 AM, Old:   350.00, New:   300.00
Detector changeover Changed: 2024-09-11 10:27:39 AM, Old:   800.00, New:   900.00
Grating changeover Changed: 2024-09-11 10:27:39 AM, Old:   800.00, New:   900.00
Baseline Correction Changed: 2024-09-11 10:27:39 AM, Old:0, New:2
Sipper Type Changed: 2024-09-11 10:27:39 AM, Old:Internal RSA, New:External sipper
End Method Modifications
<Current Wavelength> , 300.000
<SBW (nm)> , 2.00
<Energy> , 72.44
<Slit Height> , Full

t=0hrs FeCl3 100uM,
t=0hrs FeCl3 100uM
Collection Time: 2024-09-11 11:03:03 AM
Operator Name  :
Scan Version 6.4.0.1610
Parameter List :
Instrument  Cary 7000
Instrument Version  3.07
Method Log     :
Method Name    :
Date/Time stamp: 2024-09-11 10:17:34 AM
Method Modifications:
ConcentrationReportSelected Changed: 2024-09-11 10:17:35 AM, Old:Choice 0, New:Choice 1
ConcentrationReportSelected Changed: 2024-09-11 10:17:35 AM, Old:ON, New:Choice 0
MCAReportSelected Changed: 2024-09-11 10:17:35 AM, Old:Choice 0, New:Choice 1
MCAReportSelected Changed: 2024-09-11 10:17:35 AM, Old:ON, New:Choice 0
X Start nm Changed: 2024-09-11 10:27:39 AM, Old:800.000, New:1400.000
X Stop nm Changed: 2024-09-11 10:27:39 AM, Old:200.000, New:300.000
UVVIS Scan Rate nm Changed: 2024-09-11 10:27:39 AM, Old:  602.007, New:  600.000
NIR Scan Rate nm Changed: 2024-09-11 10:27:39 AM, Old:    0.004, New:   12.000
Common Interval nm Changed: 2024-09-11 10:27:39 AM, Old:    1.000, New:    0.667
Source changeover Changed: 2024-09-11 10:27:39 AM, Old:   350.00, New:   300.00
Detector changeover Changed: 2024-09-11 10:27:39 AM, Old:   800.00, New:   900.00
Grating changeover Changed: 2024-09-11 10:27:39 AM, Old:   800.00, New:   900.00
Baseline Correction Changed: 2024-09-11 10:27:39 AM, Old:0, New:2
Sipper Type Changed: 2024-09-11 10:27:39 AM, Old:Internal RSA, New:External sipper
End Method Modifications
<Current Wavelength> , 298.667
<SBW (nm)> , 2.00
<Energy> , 72.44
<Slit Height> , Full

t=0hrs FeCl3 5uM repeat,
t=0hrs FeCl3 5uM repeat
Collection Time: 2024-09-11 11:10:06 AM
Operator Name  :
Scan Version 6.4.0.1610
Parameter List :
Instrument  Cary 7000
Instrument Version  3.07
Method Log     :
Method Name    :
Date/Time stamp: 2024-09-11 10:17:34 AM
Method Modifications:
ConcentrationReportSelected Changed: 2024-09-11 10:17:35 AM, Old:Choice 0, New:Choice 1
ConcentrationReportSelected Changed: 2024-09-11 10:17:35 AM, Old:ON, New:Choice 0
MCAReportSelected Changed: 2024-09-11 10:17:35 AM, Old:Choice 0, New:Choice 1
MCAReportSelected Changed: 2024-09-11 10:17:35 AM, Old:ON, New:Choice 0
X Start nm Changed: 2024-09-11 10:27:39 AM, Old:800.000, New:1400.000
X Stop nm Changed: 2024-09-11 10:27:39 AM, Old:200.000, New:300.000
UVVIS Scan Rate nm Changed: 2024-09-11 10:27:39 AM, Old:  602.007, New:  600.000
NIR Scan Rate nm Changed: 2024-09-11 10:27:39 AM, Old:    0.004, New:   12.000
Common Interval nm Changed: 2024-09-11 10:27:39 AM, Old:    1.000, New:    0.667
Source changeover Changed: 2024-09-11 10:27:39 AM, Old:   350.00, New:   300.00
Detector changeover Changed: 2024-09-11 10:27:39 AM, Old:   800.00, New:   900.00
Grating changeover Changed: 2024-09-11 10:27:39 AM, Old:   800.00, New:   900.00
Baseline Correction Changed: 2024-09-11 10:27:39 AM, Old:0, New:2
Sipper Type Changed: 2024-09-11 10:27:39 AM, Old:Internal RSA, New:External sipper
End Method Modifications
<Current Wavelength> , 300.000
<SBW (nm)> , 2.00
<Energy> , 57.54
<Slit Height> , Full

File: 2024_09_11_imine polymer t=1hrs FeCl3 solution doping.csv
t=1hrs FeCl3 0uM,,t=1hrs FeCl3 5uM,,t=1hrs FeCl3 20uM,,t=1hrs FeCl3 50uM,,t=1hrs FeCl3 100uM,,
Wavelength (nm),Abs,Wavelength (nm),Abs,Wavelength (nm),Abs,Wavelength (nm),Abs,Wavelength (nm),Abs,
1400,0.00293277,1400,0.00399905,1400,0.00798524,1400,0.00449982,1400,0.00450199,
1390,-0.00148621,1390,-0.000855568,1390,2.30391e-05,1390,-0.000800639,1390,-0.000206159,
1380,-0.00164535,1380,-0.00124013,1380,-0.000545282,1380,-0.000983329,1380,-0.000418375,
1370,-0.00200098,1370,-0.00156865,1370,-0.00111012,1370,-0.00138796,1370,-0.000856446,
1360,-0.00200386,1360,-0.00161079,1360,-0.00139725,1360,-0.0014278,1360,-0.000994332,
1350,-0.0022082,1350,-0.00194604,1350,-0.00184233,1350,-0.00172663,1350,-0.00143894,
1340,-0.00245125,1340,-0.00206359,1340,-0.00215261,1340,-0.00192604,1340,-0.00158103,
1330,-0.00245352,1330,-0.00209373,1330,-0.0021896,1330,-0.00196882,1330,-0.00145644,
1320,-0.00248132,1320,-0.00210187,1320,-0.00226326,1320,-0.00194995,1320,-0.00153145,
1310,-0.00258328,1310,-0.00216364,1310,-0.00235338,1310,-0.00205024,1310,-0.00171703,
1300,-0.002526,1300,-0.00205756,1300,-0.00220521,1300,-0.00193877,1300,-0.00153703,
1290,-0.00262666,1290,-0.00209409,1290,-0.00215952,1290,-0.00198526,1290,-0.00158144,
1280,-0.00259074,1280,-0.00216173,1280,-0.00188119,1280,-0.00196562,1280,-0.00146,
1270,-0.00264673,1270,-0.00217987,1270,-0.00196397,1270,-0.00199376,1270,-0.00142295,
1260,-0.00263788,1260,-0.0021319,1260,-0.00210347,1260,-0.00193594,1260,-0.00140633,
1250,-0.00267498,1250,-0.00215741,1250,-0.00214314,1250,-0.00192367,1250,-0.0012469,
1240,-0.00265502,1240,-0.00214973,1240,-0.0021674,1240,-0.00197835,1240,-0.0012295,
1230,-0.00266613,1230,-0.00216317,1230,-0.00221051,1230,-0.00193547,1230,-0.00120911,
1220,-0.00263912,1220,-0.00215874,1220,-0.00223416,1220,-0.0018948,1220,-0.0012756,
1210,-0.00260196,1210,-0.00219321,1210,-0.00221046,1210,-0.00176128,1210,-0.0012615,
1200,-0.0025613,1200,-0.00223792,1200,-0.00216421,1200,-0.00177829,1200,-0.00117384,
1190,-0.00251225,1190,-0.00213757,1190,-0.00205833,1190,-0.00165773,1190,-0.000911678,
1180,-0.00250355,1180,-0.00218929,1180,-0.00202685,1180,-0.00156483,1180,-0.000864869,
1170,-0.00248816,1170,-0.00219068,1170,-0.00202906,1170,-0.00144607,1170,-0.000842909,
1160,-0.00246618,1160,-0.00209646,1160,-0.00194547,1160,-0.00131054,1160,-0.000868124,
1150,-0.00189929,1150,-0.00136107,1150,-0.0011187,1150,-0.000480643,1150,0.000277327,
1140,-0.00236208,1140,-0.00184465,1140,-0.00165701,1140,-0.000692725,1140,-0.000359045,
1130,-0.00238355,1130,-0.00176556,1130,-0.00162137,1130,-0.000506448,1130,1.41599e-05,
1120,-0.00247864,1120,-0.00183794,1120,-0.00166546,1120,-0.000772578,1120,5.69492e-07,
1110,-0.00253794,1110,-0.00183537,1110,-0.00169754,1110,-0.0010355,1110,-7.05077e-05,
1100,-0.00256964,1100,-0.00182748,1100,-0.00178443,1100,-0.00111539,1100,-0.000130497,
1090,-0.00257196,1090,-0.00180041,1090,-0.00179288,1090,-0.00116765,1090,-0.000167036,
1080,-0.00254185,1080,-0.00178835,1080,-0.0017868,1080,-0.00120973,1080,-0.000229341,
1070,-0.00247921,1070,-0.00173085,1070,-0.00176365,1070,-0.00105425,1070,-0.000380978,
1060,-0.00242845,1060,-0.00175375,1060,-0.00173776,1060,-0.000876701,1060,-0.000145403,
1050,-0.00235085,1050,-0.00160269,1050,-0.00171884,1050,-0.000907028,1050,0.000107466,
1040,-0.00239689,1040,-0.00169646,1040,-0.00180283,1040,-0.00085221,1040,-0.000283825,
1030,-0.00233618,1030,-0.00164494,1030,-0.00168181,1030,-0.00075082,1030,-0.000301933,
1020,-0.00238643,1020,-0.00165566,1020,-0.00166969,1020,-0.000679234,1020,-0.000410461,
1010,-0.00232135,1010,-0.00161616,1010,-0.00161069,1010,-0.000573099,1010,-0.000235085,
1000,-0.00226666,1000,-0.00170523,1000,-0.00159846,1000,-0.000484625,1000,-0.000133862,
990,-0.00226465,990,-0.00172632,990,-0.00147935,990,-0.000414495,990,-8.28343e-06,
980,-0.00220722,980,-0.00160821,980,-0.00124075,980,-0.000197362,980,0.000280798,
970,-0.00219841,970,-0.00167181,970,-0.00121711,970,-4.14174e-06,970,0.000439481,
960,-0.00207332,960,-0.00154399,960,-0.000839963,960,0.000397765,960,0.000885062,
950,-0.00199144,950,-0.00159619,950,-0.000676598,950,0.000475371,950,0.00108909,
940,-0.00202216,940,-0.00157102,940,-0.000467197,940,0.000701973,940,0.00136873,
930,-0.00191475,930,-0.00155462,930,-5.10441e-05,930,0.000996873,930,0.0017784,
920,-0.00186073,920,-0.00148239,920,0.000492268,920,0.00147419,920,0.00228401,
910,-0.00180412,910,-0.0014151,910,0.00103138,910,0.00198837,910,0.00285548,
900,-0.00183253,900,-0.00135761,900,0.00158509,900,0.00261293,900,0.00350582,
890,0.00072938,890,1.99327e-05,890,0.00465885,890,0.0048889,890,0.00621338,
880,-0.000225615,880,0.00178064,880,0.00535307,880,0.00591633,880,0.00849454,
870,0.000382945,870,0.000745379,870,0.0051734,870,0.00794024,870,0.00744797,
860,0.00088789,860,0.00163456,860,0.00811588,860,0.00987115,860,0.0103378,
850,0.000978634,850,0.00216113,850,0.00973138,850,0.0114678,850,0.0123098,
840,0.00139942,840,0.00251151,840,0.0114335,840,0.013615,840,0.0146949,
830,0.00140202,830,0.00261559,830,0.0132201,830,0.0156967,830,0.0169331,
820,0.00123447,820,0.00312434,820,0.0151829,820,0.0183544,820,0.0197458,
810,0.00125646,810,0.00314785,810,0.0172723,810,0.0211121,810,0.0229362,
800,0.000943403,800,0.00349055,800,0.0199993,800,0.0250434,800,0.0273396,
790,0.0010024,790,0.0041821,790,0.0231511,790,0.0304255,790,0.0327149,
780,0.00106107,780,0.00491678,780,0.02719,780,0.0367295,780,0.0396744,
770,0.00105902,770,0.00564241,770,0.0315888,770,0.0438253,770,0.0480998,
760,0.00113443,760,0.00684721,760,0.0372262,760,0.0529335,760,0.0588656,
750,0.00115732,750,0.00795002,750,0.0437481,750,0.0641118,750,0.0714818,
740,0.00121809,740,0.00958048,740,0.051735,740,0.0786166,740,0.086593,
730,0.0012042,730,0.0113821,730,0.0617024,730,0.096798,730,0.104978,
720,0.00131282,720,0.0137871,720,0.0737904,720,0.119898,720,0.127826,
710,0.00148165,710,0.0165827,710,0.0882783,710,0.148838,710,0.156414,
700,0.00164924,700,0.0198599,700,0.105129,700,0.183389,700,0.191639,
690,0.00177679,690,0.0235091,690,0.124225,690,0.223484,690,0.232712,
680,0.00210231,680,0.0277641,680,0.145533,680,0.268542,680,0.279241,
670,0.00230762,670,0.0323924,670,0.168383,670,0.318204,670,0.330435,
660,0.00211956,660,0.0367348,660,0.191942,660,0.370066,660,0.384223,
650,0.00216144,650,0.0415738,650,0.216456,650,0.424019,650,0.440184,
640,0.002360421,640,0.0467539,640,0.241115,640,0.478287,640,0.496131,
630,0.00248724,630,0.0516655,630,0.265899,630,0.532652,630,0.551392,
620,0.00278286,620,0.0567607,620,0.289854,620,0.586108,620,0.605297,
610,0.00314556,610,0.0614713,610,0.312792,610,0.637486,610,0.657611,
600,0.0038054,600,0.0658481,600,0.332959,600,0.684503,600,0.706181,
590,0.00500696,590,0.070283,590,0.349958,590,0.725077,590,0.74851,
580,0.00766185,580,0.0754973,580,0.363561,580,0.756198,580,0.780538,
570,0.0144498,570,0.0830367,570,0.373981,570,0.776115,570,0.800248,
560,0.0312453,560,0.0978809,560,0.382734,560,0.784286,560,0.807346,
550,0.0708789,550,0.128695,550,0.392742,550,0.781442,550,0.803844,
540,0.151303,540,0.189278,540,0.409391,540,0.769075,540,0.79078,
530,0.276821,530,0.284202,530,0.435978,530,0.747875,530,0.767956,
520,0.424249,520,0.398202,520,0.469544,520,0.718215,520,0.735478,
510,0.563476,510,0.508858,510,0.503372,510,0.681238,510,0.694786,
[...]
NIR Scan Rate nm Changed: 2024-09-11 10:27:39 AM, Old:    0.004, New:   12.000
Common Interval nm Changed: 2024-09-11 10:27:39 AM, Old:    1.000, New:    0.667
Source changeover Changed: 2024-09-11 10:27:39 AM, Old:   350.00, New:   300.00
Detector changeover Changed: 2024-09-11 10:27:39 AM, Old:   800.00, New:   900.00
Grating changeover Changed: 2024-09-11 10:27:39 AM, Old:   800.00, New:   900.00
Baseline Correction Changed: 2024-09-11 10:27:39 AM, Old:0, New:2
Sipper Type Changed: 2024-09-11 10:27:39 AM, Old:Internal RSA, New:External sipper
End Method Modifications
<Current Wavelength> , 300.000
<SBW (nm)> , 2.00
<Energy> , 63.10
<Slit Height> , Full

t=1hrs FeCl3 50uM,
t=1hrs FeCl3 50uM
Collection Time: 2024-09-11 11:57:42 AM
Operator Name  :
Scan Version 6.4.0.1610
Parameter List :
Instrument  Cary 7000
Instrument Version  3.07
Method Log     :
Method Name    :
Date/Time stamp: 2024-09-11 10:17:34 AM
Method Modifications:
ConcentrationReportSelected Changed: 2024-09-11 10:17:35 AM, Old:Choice 0, New:Choice 1
ConcentrationReportSelected Changed: 2024-09-11 10:17:35 AM, Old:ON, New:Choice 0
MCAReportSelected Changed: 2024-09-11 10:17:35 AM, Old:Choice 0, New:Choice 1
MCAReportSelected Changed: 2024-09-11 10:17:35 AM, Old:ON, New:Choice 0
X Start nm Changed: 2024-09-11 10:27:39 AM, Old:800.000, New:1400.000
X Stop nm Changed: 2024-09-11 10:27:39 AM, Old:200.000, New:300.000
UVVIS Scan Rate nm Changed: 2024-09-11 10:27:39 AM, Old:  602.007, New:  600.000
NIR Scan Rate nm Changed: 2024-09-11 10:27:39 AM, Old:    0.004, New:   12.000
Common Interval nm Changed: 2024-09-11 10:27:39 AM, Old:    1.000, New:    0.667
Source changeover Changed: 2024-09-11 10:27:39 AM, Old:   350.00, New:   300.00
Detector changeover Changed: 2024-09-11 10:27:39 AM, Old:   800.00, New:   900.00
Grating changeover Changed: 2024-09-11 10:27:39 AM, Old:   800.00, New:   900.00
Baseline Correction Changed: 2024-09-11 10:27:39 AM, Old:0, New:2
Sipper Type Changed: 2024-09-11 10:27:39 AM, Old:Internal RSA, New:External sipper
End Method Modifications
<Current Wavelength> , 300.000
<SBW (nm)> , 2.00
<Energy> , 72.44
<Slit Height> , Full

t=1hrs FeCl3 100uM,
t=1hrs FeCl3 100uM
Collection Time: 2024-09-11 12:04:35 PM
Operator Name  :
Scan Version 6.4.0.1610
Parameter List :
Instrument  Cary 7000
Instrument Version  3.07
Method Log     :
Method Name    :
Date/Time stamp: 2024-09-11 10:17:34 AM
Method Modifications:
ConcentrationReportSelected Changed: 2024-09-11 10:17:35 AM, Old:Choice 0, New:Choice 1
ConcentrationReportSelected Changed: 2024-09-11 10:17:35 AM, Old:ON, New:Choice 0
MCAReportSelected Changed: 2024-09-11 10:17:35 AM, Old:Choice 0, New:Choice 1
MCAReportSelected Changed: 2024-09-11 10:17:35 AM, Old:ON, New:Choice 0
X Start nm Changed: 2024-09-11 10:27:39 AM, Old:800.000, New:1400.000
X Stop nm Changed: 2024-09-11 10:27:39 AM, Old:200.000, New:300.000
UVVIS Scan Rate nm Changed: 2024-09-11 10:27:39 AM, Old:  602.007, New:  600.000
NIR Scan Rate nm Changed: 2024-09-11 10:27:39 AM, Old:    0.004, New:   12.000
Common Interval nm Changed: 2024-09-11 10:27:39 AM, Old:    1.000, New:    0.667
Source changeover Changed: 2024-09-11 10:27:39 AM, Old:   350.00, New:   300.00
Detector changeover Changed: 2024-09-11 10:27:39 AM, Old:   800.00, New:   900.00
Grating changeover Changed: 2024-09-11 10:27:39 AM, Old:   800.00, New:   900.00
Baseline Correction Changed: 2024-09-11 10:27:39 AM, Old:0, New:2
Sipper Type Changed: 2024-09-11 10:27:39 AM, Old:Internal RSA, New:External sipper
End Method Modifications
<Current Wavelength> , 300.000
<SBW (nm)> , 2.00
<Energy> , 72.44
<Slit Height> , Full