Folder: data-visualizer/UV-Vis data/misc

File: non-imine iodine doping.csv
Baseline 100%T,,Baseline 0%T,,non-imine undoped,,non-imine 10 min iodine doped,,non-imine 1 min iodine doped,,imine undoped,,imine 10 min iodine doping,,imine 1 min iodine doping,,non-imine 1 min FeCl3 doping,,imine 1 min FeCl3 doping,,non-imine 30 min iodine doping,,non-imine 30 min iodine doping1,,imine 30 min iodine doping,,imine 30 min iodine doping1,,imine 10 min FeCl3,,non-imine 10 min FeCl3,,imine 30 min FeCl3 doping,,non-imine 30 min FeCl3 doping,,non-imine 1 hr iodine doping,,non-imine 1 hr iodine doping1,,imine 1 hr iodine doping,,imine 1 hr iodine doping1,,imine 5 sec TFA,,imine 10 sec TFA,,imine 30 sec TFA,,imine 1 min TFA,,non-imine 5 sec TFA vapour,,non-imine 10 sec TFA vapour,,non-imine 30 sec TFA vapour,,non-imine 1min TFA vapour,,imine polymer 1 hour FeCl3,,
Wavelength (nm),%T,Wavelength (nm),%T,Wavelength (nm),Abs,Wavelength (nm),Abs,Wavelength (nm),Abs,Wavelength (nm),Abs,Wavelength (nm),Abs,Wavelength (nm),Abs,Wavelength (nm),Abs,Wavelength (nm),Abs,Wavelength (nm),Abs,Wavelength (nm),Abs,Wavelength (nm),Abs,Wavelength (nm),Abs,Wavelength (nm),Abs,Wavelength (nm),Abs,Wavelength (nm),Abs,Wavelength (nm),Abs,Wavelength (nm),Abs,Wavelength (nm),Abs,Wavelength (nm),Abs,Wavelength (nm),Abs,Wavelength (nm),Abs,Wavelength (nm),Abs,Wavelength (nm),Abs,Wavelength (nm),Abs,Wavelength (nm),Abs,Wavelength (nm),Abs,Wavelength (nm),Abs,Wavelength (nm),Abs,Wavelength (nm),Abs,
1200,1153.98,1200,0.0712326,1200,-0.0142374,1200,0.00588576,1200,0.012892,1200,-0.0175043,1200,-0.00857468,1200,0.00325274,1200,-0.014806,1200,-0.0140852,1200,0.00767486,1200,-0.00769026,1200,0.0156256,1200,-0.01021,1200,-0.0146954,1200,-0.0201129,1200,-0.0090797,1200,-0.0118565,1200,-0.00167454,1200,0.00108294,1200,-0.0109115,1200,-0.00565769,1200,-0.00765689,1200,-0.00555538,1200,-0.00620169,1200,-0.0094796,1200,-0.0158553,1200,-0.0157078,1200,-0.0176292,1200,-0.0165272,1200,-0.0097495,
1151.33,1146.05,1151.33,0.0788403,1151.33,-0.0140532,1151.33,0.00749892,1151.33,0.0142501,1151.33,-0.0169099,1151.33,-0.00814133,1151.33,0.00363188,1151.33,-0.0146897,1151.33,-0.013804,1151.33,0.00869125,1151.33,-0.00632049,1151.33,0.0161611,1151.33,-0.00933313,1151.33,-0.0141173,1151.33,-0.0196952,1151.33,-0.00888603,1151.33,-0.011608,1151.33,-0.000570307,1151.33,0.00225005,1151.33,-0.00998812,1151.33,-0.00469996,1151.33,-0.0071193,1151.33,-0.00525733,1151.33,-0.00578548,1151.33,-0.00901769,1151.33,-0.0154363,1151.33,-0.0155945,1151.33,-0.0171884,1151.33,-0.0162954,1151.33,-0.00938218,
1102.67,1142.72,1102.67,0.0748298,1102.67,-0.0140248,1102.67,0.00918372,1102.67,0.0154921,1102.67,-0.016255,1102.67,-0.00741683,1102.67,0.00408775,1102.67,-0.0145769,1102.67,-0.0134742,1102.67,0.00990287,1102.67,-0.0044991,1102.67,0.016965,1102.67,-0.00868994,1102.67,-0.0139626,1102.67,-0.019702,1102.67,-0.00886082,1102.67,-0.0114611,1102.67,0.000780827,1102.67,0.00363848,1102.67,-0.00917542,1102.67,-0.00377193,1102.67,-0.00692272,1102.67,-0.00527487,1102.67,-0.00563439,1102.67,-0.00858372,1102.67,-0.0155223,1102.67,-0.0154039,1102.67,-0.0169652,1102.67,-0.0160547,1102.67,-0.00909121,
1054,1148.49,1054,0.0675922,1054,-0.0136275,1054,0.0108137,1054,0.0167406,1054,-0.0154127,1054,-0.00638151,1054,0.0050013,1054,-0.0142943,1054,-0.0126729,1054,0.0113874,1054,-0.00274336,1054,0.017854,1054,-0.00753199,1054,-0.0134505,1054,-0.0193742,1054,-0.00818213,1054,-0.0111222,1054,0.00265184,1054,0.00533022,1054,-0.00787058,1054,-0.00264364,1054,-0.00611492,1054,-0.00451309,1054,-0.00507843,1054,-0.00790947,1054,-0.0151144,1054,-0.0151566,1054,-0.0165594,1054,-0.015674,1054,-0.00854077,
1005.33,1161.4,1005.33,0.0638941,1005.33,-0.0134567,1005.33,0.0114965,1005.33,0.0170089,1005.33,-0.0152514,1005.33,-0.00580862,1005.33,0.00561792,1005.33,-0.0140345,1005.33,-0.0121711,1005.33,0.0119578,1005.33,-0.00134905,1005.33,0.0186499,1005.33,-0.00646247,1005.33,-0.0129169,1005.33,-0.01925,1005.33,-0.00781425,1005.33,-0.0111005,1005.33,0.00385611,1005.33,0.00651231,1005.33,-0.00699415,1005.33,-0.00153919,1005.33,-0.00593601,1005.33,-0.00440025,1005.33,-0.00472659,1005.33,-0.00762459,1005.33,-0.015239,1005.33,-0.015198,1005.33,-0.0164895,1005.33,-0.0156855,1005.33,-0.00801271,
956.667,1188.12,956.667,0.0760562,956.667,-0.0131663,956.667,0.0122411,956.667,0.0168216,956.667,-0.0142437,956.667,-0.00457308,956.667,0.0063749,956.667,-0.0135861,956.667,-0.0117201,956.667,0.01239,956.667,-0.000103532,956.667,0.019727,956.667,-0.00526331,956.667,-0.0122542,956.667,-0.018988,956.667,-0.00722787,956.667,-0.010774,956.667,0.00528483,956.667,0.00782162,956.667,-0.0055062,956.667,-0.000151562,956.667,-0.00543974,956.667,-0.00389555,956.667,-0.00438272,956.667,-0.00679684,956.667,-0.0151635,956.667,-0.0151584,956.667,-0.0165968,956.667,-0.0155035,956.667,-0.00775271,
908,1262.78,908,0.075905,908,-0.0131753,908,0.0111975,908,0.0143631,908,-0.0139936,908,-0.00367533,908,0.00650109,908,-0.013688,908,-0.0115119,908,0.0116686,908,0.00023819,908,0.0201278,908,-0.00389381,908,-0.0121369,908,-0.0189057,908,-0.00714456,908,-0.011374,908,0.00530944,908,0.00805992,908,-0.00425714,908,0.000935309,908,-0.00579605,908,-0.00419213,908,-0.00470057,908,-0.00678476,908,-0.0153863,908,-0.0156525,908,-0.0167771,908,-0.015966,908,-0.00762942,
859.333,1318.09,859.333,0.045706,859.333,-0.0149909,859.333,0.0125581,859.333,0.0152876,859.333,-0.0155856,859.333,-0.00202241,859.333,0.00914059,859.333,-0.016805,859.333,-0.0136859,859.333,0.0131313,859.333,0.000545294,859.333,0.0270716,859.333,-0.00173467,859.333,-0.0148233,859.333,-0.023928,859.333,-0.0094412,859.333,-0.015637,859.333,0.0048966,859.333,0.00808157,859.333,-0.00456791,859.333,0.00478684,859.333,-0.00499394,859.333,-0.0050403,859.333,-0.00581634,859.333,-0.00841628,859.333,-0.0195043,859.333,-0.0193615,859.333,-0.0217063,859.333,-0.0205757,859.333,-0.0107335,
810.667,1252.46,810.667,0.0211056,810.667,-0.0151679,810.667,0.0121416,810.667,0.0116571,810.667,-0.0159383,810.667,0.00342018,810.667,0.0115071,810.667,-0.0176626,810.667,-0.014169,810.667,0.0126692,810.667,-0.000703942,810.667,0.033855,810.667,0.00246272,810.667,-0.0143038,810.667,-0.0243567,810.667,-0.00815073,810.667,-0.0159753,810.667,0.00704496,810.667,0.00960359,810.667,0.00245434,810.667,0.010434,810.667,-0.00653443,810.667,-0.00450381,810.667,-0.00525881,810.667,-0.00700459,810.667,-0.0216576,810.667,-0.0214414,810.667,-0.0229357,810.667,-0.0231083,810.667,-0.00993262,
762,1262.39,762,0.00973657,762,-0.0147459,762,0.0105998,762,0.00915997,762,-0.014725,762,0.0131879,762,0.0161299,762,-0.0172989,762,-0.0124159,762,0.0122214,762,6.52331e-06,762,0.0455993,762,0.0120898,762,-0.0123012,762,-0.0242302,762,-0.00584428,762,-0.0163573,762,0.00732219,762,0.0105696,762,0.0136901,762,0.0238859,762,-0.00491572,762,-0.00288646,762,-0.0028126,762,-0.00311536,762,-0.0211282,762,-0.0215684,762,-0.0229933,762,-0.0228425,762,-0.00752782,
713.333,1299.47,713.333,0.00255109,713.333,-0.0140133,713.333,0.0102895,713.333,0.00672016,713.333,-0.0128441,713.333,0.0295374,713.333,0.0238335,713.333,-0.016955,713.333,-0.00951966,713.333,0.0125475,713.333,0.000491309,713.333,0.0651977,713.333,0.0282902,713.333,-0.00872201,713.333,-0.0238003,713.333,-0.00117291,713.333,-0.0158112,713.333,0.0077239,713.333,0.0114832,713.333,0.0318118,713.333,0.0457091,713.333,-0.00154291,713.333,0.00140867,713.333,0.00112999,713.333,0.00550764,713.333,-0.0209535,713.333,-0.0214931,713.333,-0.0228632,713.333,-0.0225568,713.333,-0.00229895,
664.667,1335.6,664.667,0.000599293,664.667,-0.0131751,664.667,0.00696943,664.667,0.0029918,664.667,-0.0105384,664.667,0.0515578,664.667,0.0346465,664.667,-0.0163791,664.667,-0.00421653,664.667,0.00855156,664.667,-0.00222931,664.667,0.0920092,664.667,0.0503067,664.667,-0.00151056,664.667,-0.0233716,664.667,0.00811074,664.667,-0.0154756,664.667,0.00486,664.667,0.00772896,664.667,0.0567965,664.667,0.0768814,664.667,0.00411608,664.667,0.00815188,664.667,0.00847794,664.667,0.0218866,664.667,-0.0204535,664.667,-0.0213055,664.667,-0.0228132,664.667,-0.0224644,664.667,0.0074635,
616,1359.06,616,8.89528e-05,616,-0.00983388,616,0.00413322,616,0.000875725,616,-0.00587426,616,0.072837,616,0.0471122,616,-0.0136915,616,0.00558808,616,0.00477211,616,-0.00494516,616,0.117482,616,0.0717143,616,0.0112463,616,-0.0209962,616,0.0235982,616,-0.0129017,616,0.0021802,616,0.0035172,616,0.0819579,616,0.10839,616,0.0145852,616,0.0209074,616,0.0214062,616,0.0464952,616,-0.0187051,616,-0.0197299,616,-0.0218044,616,-0.0213655,616,0.0233269,
567.333,1385.02,567.333,3.09391e-05,567.333,0.0229879,567.333,0.00829231,567.333,0.00845408,567.333,0.0184973,567.333,0.0869797,567.333,0.0675877,567.333,0.0132192,567.333,0.0327221,567.333,0.00581165,567.333,-0.00206091,567.333,0.1331,567.333,0.08735,567.333,0.0391394,567.333,0.00437586,567.333,0.0508686,567.333,0.0139038,567.333,0.00357365,567.333,0.00418939,567.333,0.0979996,567.333,0.126405,567.333,0.0460184,567.333,0.0565888,567.333,0.0557127,567.333,0.0801088,567.333,-0.00242819,567.333,-0.00680143,567.333,-0.0131096,567.333,-0.0131551,567.333,0.0500076,
518.667,1397.71,518.667,-0.000123267,518.667,0.0784831,518.667,0.02517,518.667,0.0315662,518.667,0.098514,518.667,0.103514,518.667,0.114121,518.667,0.0659963,518.667,0.102464,518.667,0.0189493,518.667,0.0115202,518.667,0.14856,518.667,0.108095,518.667,0.0994434,518.667,0.0567671,518.667,0.100614,518.667,0.070047,518.667,0.0133425,518.667,0.0150326,518.667,0.112849,518.667,0.137829,518.667,0.110861,518.667,0.124566,518.667,0.117753,518.667,0.119115,518.667,0.0350555,518.667,0.0221939,518.667,0.00731008,518.667,0.00891713,518.667,0.0953963,
470,1415.3,470,-7.42545e-05,470,0.100707,470,0.042672,470,0.0520738,470,0.146892,470,0.122173,470,0.153383,470,0.0918541,470,0.141988,470,0.0380125,470,0.0269538,470,0.16932,470,0.13167,470,0.135634,470,0.0840424,470,0.13237,470,0.0992882,470,0.0272609,470,0.0309022,470,0.130832,470,0.154444,470,0.144198,470,0.151561,470,0.142325,470,0.130448,470,0.0665074,470,0.0524599,470,0.0319091,470,0.0355392,470,0.124786,
421.333,1432.9,421.333,-0.000230144,421.333,0.0719509,421.333,0.0531498,421.333,0.0578525,421.333,0.124745,421.333,0.13406,421.333,0.1526,421.333,0.0671083,421.333,0.120989,421.333,0.0545613,421.333,0.0375408,421.333,0.182047,421.333,0.145336,421.333,0.119686,421.333,0.0614662,421.333,0.122523,421.333,0.0751799,421.333,0.0411468,421.333,0.0454802,421.333,0.146621,421.333,0.167461,421.333,0.119764,421.333,0.118775,421.333,0.113641,421.333,0.108407,421.333,0.0569121,421.333,0.0501942,421.333,0.0363712,421.333,0.040098,421.333,0.117015,
372.667,1432.04,372.667,1.05279e-05,372.667,0.0354831,372.667,0.0645702,372.667,0.0503205,372.667,0.100479,372.667,0.133793,372.667,0.140086,372.667,0.0323086,372.667,0.0987244,372.667,0.0649244,372.667,0.0559186,372.667,0.171938,372.667,0.143987,372.667,0.0980841,372.667,0.0277835,372.667,0.103566,372.667,0.0386959,372.667,0.0626782,372.667,0.0658137,372.667,0.150931,372.667,0.155832,372.667,0.103991,372.667,0.106333,372.667,0.105061,372.667,0.0985645,372.667,0.0274177,372.667,0.0253265,372.667,0.0219214,372.667,0.0239734,372.667,0.0984437,
324,1420.41,324,-0.000406053,324,0.0177268,324,0.0496268,324,0.0346001,324,0.0659559,324,0.0899226,324,0.0984512,324,0.0164733,324,0.0614537,324,0.0514679,324,0.0426201,324,0.133317,324,0.0991542,324,0.0600708,324,0.0124633,324,0.0648876,324,0.0226133,324,0.0510591,324,0.050789,324,0.103105,324,0.117631,324,0.0653522,324,0.0651325,324,0.0656342,324,0.055821,324,0.0146065,324,0.0147036,324,0.0149394,324,0.0159418,324,0.0602686,
300,1416.92,,,,,,,,,,,,,,,,,,,,,,,,,,,,,,,,,,,,,,,,,,,,,,,,,,,,,,,,,,,,,

Baseline 100%T,
Baseline 100%T
Collection Time: 2024-09-03 1:30:34 PM
Operator Name  :
Scan Version 6.4.0.1610
Parameter List :
Instrument  Cary 7000
Instrument Version  3.07
Method Log     :
Method Name    :
Date/Time stamp: 2024-09-03 1:29:02 PM
Method Modifications:
ConcentrationReportSelected Changed: 2024-09-03 1:29:03 PM, Old:Choice 0, New:Choice 1
ConcentrationReportSelected Changed: 2024-09-03 1:29:03 PM, Old:ON, New:Choice 0
MCAReportSelected Changed: 2024-09-03 1:29:03 PM, Old:Choice 0, New:Choice 1
MCAReportSelected Changed: 2024-09-03 1:29:03 PM, Old:ON, New:Choice 0
X Start nm Changed: 2024-09-03 1:30:02 PM, Old:800.000, New:1200.000
X Stop nm Changed: 2024-09-03 1:30:02 PM, Old:200.000, New:300.000
UVVIS Scan Rate nm Changed: 2024-09-03 1:30:02 PM, Old:  602.007, New:  600.000
NIR Scan Rate nm Changed: 2024-09-03 1:30:02 PM, Old:    0.004, New:   12.000
Common Interval nm Changed: 2024-09-03 1:30:02 PM, Old:    1.000, New:    0.667
Source changeover Changed: 2024-09-03 1:30:02 PM, Old:   350.00, New:   300.00
Detector changeover Changed: 2024-09-03 1:30:02 PM, Old:   800.00, New:   900.00
Grating changeover Changed: 2024-09-03 1:30:02 PM, Old:   800.00, New:   900.00
Baseline Correction Changed: 2024-09-03 1:30:02 PM, Old:0, New:2
Sipper Type Changed: 2024-09-03 1:30:02 PM, Old:Internal RSA, New:External sipper
End Method Modifications
<Current Wavelength> , 299.333
<SBW (nm)> , 2.00
<Energy> , 57.54
<Slit Height> , Full

Baseline 0%T,
Baseline 0%T
Collection Time: 2024-09-03 1:33:59 PM
Operator Name  :
Scan Version 6.4.0.1610
Parameter List :
Instrument  Cary 7000
Instrument Version  3.07
Method Log     :
Method Name    :
Date/Time stamp: 2024-09-03 1:29:02 PM
Method Modifications:
ConcentrationReportSelected Changed: 2024-09-03 1:29:03 PM, Old:Choice 0, New:Choice 1
ConcentrationReportSelected Changed: 2024-09-03 1:29:03 PM, Old:ON, New:Choice 0
MCAReportSelected Changed: 2024-09-03 1:29:03 PM, Old:Choice 0, New:Choice 1
MCAReportSelected Changed: 2024-09-03 1:29:03 PM, Old:ON, New:Choice 0
X Start nm Changed: 2024-09-03 1:30:02 PM, Old:800.000, New:1200.000
X Stop nm Changed: 2024-09-03 1:30:02 PM, Old:200.000, New:300.000
UVVIS Scan Rate nm Changed: 2024-09-03 1:30:02 PM, Old:  602.007, New:  600.000
NIR Scan Rate nm Changed: 2024-09-03 1:30:02 PM, Old:    0.004, New:   12.000
Common Interval nm Changed: 2024-09-03 1:30:02 PM, Old:    1.000, New:    0.667
Source changeover Changed: 2024-09-03 1:30:02 PM, Old:   350.00, New:   300.00
Detector changeover Changed: 2024-09-03 1:30:02 PM, Old:   800.00, New:   900.00
Grating changeover Changed: 2024-09-03 1:30:02 PM, Old:   800.00, New:   900.00
Baseline Correction Changed: 2024-09-03 1:30:02 PM, Old:0, New:2
Sipper Type Changed: 2024-09-03 1:30:02 PM, Old:Internal RSA, New:External sipper
End Method Modifications
<Current Wavelength> , 300.000
<SBW (nm)> , 2.00
<Energy> , 363.08
<Slit Height> , Full

non-imine undoped,
non-imine undoped
Collection Time: 2024-09-03 1:37:58 PM
Operator Name  :
Scan Version 6.4.0.1610
Parameter List :
Instrument  Cary 7000
Instrument Version  3.07
Method Log     :
Method Name    :
Date/Time stamp: 2024-09-03 1:29:02 PM
Method Modifications:
ConcentrationReportSelected Changed: 2024-09-03 1:29:03 PM, Old:Choice 0, New:Choice 1
ConcentrationReportSelected Changed: 2024-09-03 1:29:03 PM, Old:ON, New:Choice 0
MCAReportSelected Changed: 2024-09-03 1:29:03 PM, Old:Choice 0, New:Choice 1
MCAReportSelected Changed: 2024-09-03 1:29:03 PM, Old:ON, New:Choice 0
X Start nm Changed: 2024-09-03 1:30:02 PM, Old:800.000, New:1200.000
X Stop nm Changed: 2024-09-03 1:30:02 PM, Old:200.000, New:300.000
UVVIS Scan Rate nm Changed: 2024-09-03 1:30:02 PM, Old:  602.007, New:  600.000
NIR Scan Rate nm Changed: 2024-09-03 1:30:02 PM, Old:    0.004, New:   12.000
Common Interval nm Changed: 2024-09-03 1:30:02 PM, Old:    1.000, New:    0.667
Source changeover Changed: 2024-09-03 1:30:02 PM, Old:   350.00, New:   300.00
Detector changeover Changed: 2024-09-03 1:30:02 PM, Old:   800.00, New:   900.00
Grating changeover Changed: 2024-09-03 1:30:02 PM, Old:   800.00, New:   900.00
Baseline Correction Changed: 2024-09-03 1:30:02 PM, Old:0, New:2
Sipper Type Changed: 2024-09-03 1:30:02 PM, Old:Internal RSA, New:External sipper
End Method Modifications
<Current Wavelength> , 299.333
<SBW (nm)> , 2.00
<Energy> , 87.10
<Slit Height> , Full

non-imine 10 min iodine doped,
non-imine 10 min iodine doped
Collection Time: 2024-09-03 1:41:44 PM
Operator Name  :
Scan Version 6.4.0.1610
Parameter List :
Instrument  Cary 7000
Instrument Version  3.07
Method Log     :
Method Name    :
Date/Time stamp: 2024-09-03 1:29:02 PM
Method Modifications:
ConcentrationReportSelected Changed: 2024-09-03 1:29:03 PM, Old:Choice 0, New:Choice 1
ConcentrationReportSelected Changed: 2024-09-03 1:29:03 PM, Old:ON, New:Choice 0
MCAReportSelected Changed: 2024-09-03 1:29:03 PM, Old:Choice 0, New:Choice 1
MCAReportSelected Changed: 2024-09-03 1:29:03 PM, Old:ON, New:Choice 0
X Start nm Changed: 2024-09-03 1:30:02 PM, Old:800.000, New:1200.000
X Stop nm Changed: 2024-09-03 1:30:02 PM, Old:200.000, New:300.000
UVVIS Scan Rate nm Changed: 2024-09-03 1:30:02 PM, Old:  602.007, New:  600.000
NIR Scan Rate nm Changed: 2024-09-03 1:30:02 PM, Old:    0.004, New:   12.000
Common Interval nm Changed: 2024-09-03 1:30:02 PM, Old:    1.000, New:    0.667
Source changeover Changed: 2024-09-03 1:30:02 PM, Old:   350.00, New:   300.00
Detector changeover Changed: 2024-09-03 1:30:02 PM, Old:   800.00, New:   900.00
Grating changeover Changed: 2024-09-03 1:30:02 PM, Old:   800.00, New:   900.00
Baseline Correction Changed: 2024-09-03 1:30:02 PM, Old:0, New:2
[...]
Method Modifications:
ConcentrationReportSelected Changed: 2024-09-03 1:29:03 PM, Old:Choice 0, New:Choice 1
ConcentrationReportSelected Changed: 2024-09-03 1:29:03 PM, Old:ON, New:Choice 0
MCAReportSelected Changed: 2024-09-03 1:29:03 PM, Old:Choice 0, New:Choice 1
MCAReportSelected Changed: 2024-09-03 1:29:03 PM, Old:ON, New:Choice 0
X Start nm Changed: 2024-09-03 1:30:02 PM, Old:800.000, New:1200.000
X Stop nm Changed: 2024-09-03 1:30:02 PM, Old:200.000, New:300.000
UVVIS Scan Rate nm Changed: 2024-09-03 1:30:02 PM, Old:  602.007, New:  600.000
NIR Scan Rate nm Changed: 2024-09-03 1:30:02 PM, Old:    0.004, New:   12.000
Common Interval nm Changed: 2024-09-03 1:30:02 PM, Old:    1.000, New:    0.667
Source changeover Changed: 2024-09-03 1:30:02 PM, Old:   350.00, New:   300.00
Detector changeover Changed: 2024-09-03 1:30:02 PM, Old:   800.00, New:   900.00
Grating changeover Changed: 2024-09-03 1:30:02 PM, Old:   800.00, New:   900.00
Baseline Correction Changed: 2024-09-03 1:30:02 PM, Old:0, New:2
Sipper Type Changed: 2024-09-03 1:30:02 PM, Old:Internal RSA, New:External sipper
End Method Modifications
<Current Wavelength> , 300.000
<SBW (nm)> , 2.00
<Energy> , 91.20
<Slit Height> , Full

non-imine 5 sec TFA vapour,
non-imine 5 sec TFA vapour
Collection Time: 2024-09-03 4:06:35 PM
Operator Name  :
Scan Version 6.4.0.1610
Parameter List :
Instrument  Cary 7000
Instrument Version  3.07
Method Log     :
Method Name    :
Date/Time stamp: 2024-09-03 1:29:02 PM
Method Modifications:
ConcentrationReportSelected Changed: 2024-09-03 1:29:03 PM, Old:Choice 0, New:Choice 1
ConcentrationReportSelected Changed: 2024-09-03 1:29:03 PM, Old:ON, New:Choice 0
MCAReportSelected Changed: 2024-09-03 1:29:03 PM, Old:Choice 0, New:Choice 1
MCAReportSelected Changed: 2024-09-03 1:29:03 PM, Old:ON, New:Choice 0
X Start nm Changed: 2024-09-03 1:30:02 PM, Old:800.000, New:1200.000
X Stop nm Changed: 2024-09-03 1:30:02 PM, Old:200.000, New:300.000
UVVIS Scan Rate nm Changed: 2024-09-03 1:30:02 PM, Old:  602.007, New:  600.000
NIR Scan Rate nm Changed: 2024-09-03 1:30:02 PM, Old:    0.004, New:   12.000
Common Interval nm Changed: 2024-09-03 1:30:02 PM, Old:    1.000, New:    0.667
Source changeover Changed: 2024-09-03 1:30:02 PM, Old:   350.00, New:   300.00
Detector changeover Changed: 2024-09-03 1:30:02 PM, Old:   800.00, New:   900.00
Grating changeover Changed: 2024-09-03 1:30:02 PM, Old:   800.00, New:   900.00
Baseline Correction Changed: 2024-09-03 1:30:02 PM, Old:0, New:2
Sipper Type Changed: 2024-09-03 1:30:02 PM, Old:Internal RSA, New:External sipper
End Method Modifications
<Current Wavelength> , 300.000
<SBW (nm)> , 2.00
<Energy> , 87.10
<Slit Height> , Full

non-imine 10 sec TFA vapour,
non-imine 10 sec TFA vapour
Collection Time: 2024-09-03 4:10:42 PM
Operator Name  :
Scan Version 6.4.0.1610
Parameter List :
Instrument  Cary 7000
Instrument Version  3.07
Method Log     :
Method Name    :
Date/Time stamp: 2024-09-03 1:29:02 PM
Method Modifications:
ConcentrationReportSelected Changed: 2024-09-03 1:29:03 PM, Old:Choice 0, New:Choice 1
ConcentrationReportSelected Changed: 2024-09-03 1:29:03 PM, Old:ON, New:Choice 0
MCAReportSelected Changed: 2024-09-03 1:29:03 PM, Old:Choice 0, New:Choice 1
MCAReportSelected Changed: 2024-09-03 1:29:03 PM, Old:ON, New:Choice 0
X Start nm Changed: 2024-09-03 1:30:02 PM, Old:800.000, New:1200.000
X Stop nm Changed: 2024-09-03 1:30:02 PM, Old:200.000, New:300.000
UVVIS Scan Rate nm Changed: 2024-09-03 1:30:02 PM, Old:  602.007, New:  600.000
NIR Scan Rate nm Changed: 2024-09-03 1:30:02 PM, Old:    0.004, New:   12.000
Common Interval nm Changed: 2024-09-03 1:30:02 PM, Old:    1.000, New:    0.667
Source changeover Changed: 2024-09-03 1:30:02 PM, Old:   350.00, New:   300.00
Detector changeover Changed: 2024-09-03 1:30:02 PM, Old:   800.00, New:   900.00
Grating changeover Changed: 2024-09-03 1:30:02 PM, Old:   800.00, New:   900.00
Baseline Correction Changed: 2024-09-03 1:30:02 PM, Old:0, New:2
Sipper Type Changed: 2024-09-03 1:30:02 PM, Old:Internal RSA, New:External sipper
End Method Modifications
<Current Wavelength> , 299.333
<SBW (nm)> , 2.00
<Energy> , 87.10
<Slit Height> , Full

non-imine 30 sec TFA vapour,
non-imine 30 sec TFA vapour
Collection Time: 2024-09-03 4:15:05 PM
Operator Name  :
Scan Version 6.4.0.1610
Parameter List :
Instrument  Cary 7000
Instrument Version  3.07
Method Log     :
Method Name    :
Date/Time stamp: 2024-09-03 1:29:02 PM
Method Modifications:
ConcentrationReportSelected Changed: 2024-09-03 1:29:03 PM, Old:Choice 0, New:Choice 1
ConcentrationReportSelected Changed: 2024-09-03 1:29:03 PM, Old:ON, New:Choice 0
MCAReportSelected Changed: 2024-09-03 1:29:03 PM, Old:Choice 0, New:Choice 1
MCAReportSelected Changed: 2024-09-03 1:29:03 PM, Old:ON, New:Choice 0
X Start nm Changed: 2024-09-03 1:30:02 PM, Old:800.000, New:1200.000
X Stop nm Changed: 2024-09-03 1:30:02 PM, Old:200.000, New:300.000
UVVIS Scan Rate nm Changed: 2024-09-03 1:30:02 PM, Old:  602.007, New:  600.000
NIR Scan Rate nm Changed: 2024-09-03 1:30:02 PM, Old:    0.004, New:   12.000
Common Interval nm Changed: 2024-09-03 1:30:02 PM, Old:    1.000, New:    0.667
Source changeover Changed: 2024-09-03 1:30:02 PM, Old:   350.00, New:   300.00
Detector changeover Changed: 2024-09-03 1:30:02 PM, Old:   800.00, New:   900.00
Grating changeover Changed: 2024-09-03 1:30:02 PM, Old:   800.00, New:   900.00
Baseline Correction Changed: 2024-09-03 1:30:02 PM, Old:0, New:2
Sipper Type Changed: 2024-09-03 1:30:02 PM, Old:Internal RSA, New:External sipper
End Method Modifications
<Current Wavelength> , 300.000
<SBW (nm)> , 2.00
<Energy> , 87.10
<Slit Height> , Full

non-imine 1min TFA vapour,
non-imine 1min TFA vapour
Collection Time: 2024-09-03 4:20:07 PM
Operator Name  :
Scan Version 6.4.0.1610
Parameter List :
Instrument  Cary 7000
Instrument Version  3.07
Method Log     :
Method Name    :
Date/Time stamp: 2024-09-03 1:29:02 PM
Method Modifications:
ConcentrationReportSelected Changed: 2024-09-03 1:29:03 PM, Old:Choice 0, New:Choice 1
ConcentrationReportSelected Changed: 2024-09-03 1:29:03 PM, Old:ON, New:Choice 0
MCAReportSelected Changed: 2024-09-03 1:29:03 PM, Old:Choice 0, New:Choice 1
MCAReportSelected Changed: 2024-09-03 1:29:03 PM, Old:ON, New:Choice 0
X Start nm Changed: 2024-09-03 1:30:02 PM, Old:800.000, New:1200.000
X Stop nm Changed: 2024-09-03 1:30:02 PM, Old:200.000, New:300.000
UVVIS Scan Rate nm Changed: 2024-09-03 1:30:02 PM, Old:  602.007, New:  600.000
NIR Scan Rate nm Changed: 2024-09-03 1:30:02 PM, Old:    0.004, New:   12.000
Common Interval nm Changed: 2024-09-03 1:30:02 PM, Old:    1.000, New:    0.667
Source changeover Changed: 2024-09-03 1:30:02 PM, Old:   350.00, New:   300.00
Detector changeover Changed: 2024-09-03 1:30:02 PM, Old:   800.00, New:   900.00
Grating changeover Changed: 2024-09-03 1:30:02 PM, Old:   800.00, New:   900.00
Baseline Correction Changed: 2024-09-03 1:30:02 PM, Old:0, New:2
Sipper Type Changed: 2024-09-03 1:30:02 PM, Old:Internal RSA, New:External sipper
End Method Modifications
<Current Wavelength> , 300.000
<SBW (nm)> , 2.00
<Energy> , 87.10
<Slit Height> , Full

imine polymer 1 hour FeCl3,
imine polymer 1 hour FeCl3
Collection Time: 2024-09-03 4:25:43 PM
Operator Name  :
Scan Version 6.4.0.1610
Parameter List :
Instrument  Cary 7000
Instrument Version  3.07
Method Log     :
Method Name    :
Date/Time stamp: 2024-09-03 1:29:02 PM
Method Modifications:
ConcentrationReportSelected Changed: 2024-09-03 1:29:03 PM, Old:Choice 0, New:Choice 1
ConcentrationReportSelected Changed: 2024-09-03 1:29:03 PM, Old:ON, New:Choice 0
MCAReportSelected Changed: 2024-09-03 1:29:03 PM, Old:Choice 0, New:Choice 1
MCAReportSelected Changed: 2024-09-03 1:29:03 PM, Old:ON, New:Choice 0
X Start nm Changed: 2024-09-03 1:30:02 PM, Old:800.000, New:1200.000
X Stop nm Changed: 2024-09-03 1:30:02 PM, Old:200.000, New:300.000
UVVIS Scan Rate nm Changed: 2024-09-03 1:30:02 PM, Old:  602.007, New:  600.000
NIR Scan Rate nm Changed: 2024-09-03 1:30:02 PM, Old:    0.004, New:   12.000
Common Interval nm Changed: 2024-09-03 1:30:02 PM, Old:    1.000, New:    0.667
Source changeover Changed: 2024-09-03 1:30:02 PM, Old:   350.00, New:   300.00
Detector changeover Changed: 2024-09-03 1:30:02 PM, Old:   800.00, New:   900.00
Grating changeover Changed: 2024-09-03 1:30:02 PM, Old:   800.00, New:   900.00
Baseline Correction Changed: 2024-09-03 1:30:02 PM, Old:0, New:2
Sipper Type Changed: 2024-09-03 1:30:02 PM, Old:Internal RSA, New:External sipper
End Method Modifications
<Current Wavelength> , 300.000
<SBW (nm)> , 2.00
<Energy> , 91.20
<Slit Height> , Full