Folder: data-visualizer/data/TGA

File: 2024_01_24_001G_and_005P.csv
Baseline 100%T,,Baseline 0%T,,thf_blank,,001G_1mg_ml,,005P_1mg_ml,,005P_0.6mg_ml,,
Wavelength (nm),%T,Wavelength (nm),%T,Wavelength (nm),Abs,Wavelength (nm),Abs,Wavelength (nm),Abs,Wavelength (nm),Abs,
800,92.9379,800,0.00133842,800,0.000242697,800,0.000286834,800,0.00290194,800,0.00357344,
794,92.9554,794,0.00111508,794,0.000511756,794,0.000448032,794,0.00295615,794,0.00372155,
788,93.0195,788,0.000936156,788,0.000395899,788,0.000517614,788,0.00288242,788,0.00374688,
782,93.1136,782,0.000532338,782,0.000389681,782,0.000443964,782,0.00286098,782,0.0037162,
776,93.2322,776,0.000770812,776,0.000310173,776,0.000386572,776,0.00276007,776,0.00366553,
770,93.4152,770,0.000723416,770,0.000361389,770,0.00044031,770,0.00283065,770,0.00373829,
764,93.6174,764,0.000662919,764,0.000446996,764,0.000393023,764,0.00288722,764,0.00375902,
758,93.8479,758,0.000463677,758,0.000358228,758,0.000415643,758,0.00279756,758,0.00372205,
752,94.1082,752,0.000485183,752,0.000366001,752,0.000404994,752,0.0028288,752,0.00372743,
746,94.3805,746,0.000247622,746,0.000387375,746,0.000400874,746,0.00282611,746,0.00371753,
740,94.6512,740,0.000255928,740,0.000401418,740,0.000430075,740,0.00299485,740,0.00371808,
734,94.8924,734,0.000260429,734,0.000402947,734,0.000361519,734,0.00323858,734,0.00374633,
728,95.172,728,0.000140281,728,0.000433573,728,0.000461274,728,0.0034601,728,0.00390247,
722,95.432,722,0.000188257,722,0.000290667,722,0.000346907,722,0.00343769,722,0.00378566,
716,95.7084,716,0.000186438,716,0.000328332,716,0.000322737,716,0.00337439,716,0.00381814,
710,95.9895,710,2.19834e-05,710,0.000341441,710,0.000313981,710,0.00342344,710,0.00381908,
704,96.2658,704,-4.22643e-05,704,0.000416265,704,0.000405641,704,0.00338246,704,0.0039223,
698,96.5403,698,-0.000160977,698,0.000355871,698,0.000421861,698,0.0033379,698,0.00396752,
692,96.8053,692,-0.00029301,692,0.000381312,692,0.000425463,692,0.00321583,692,0.0039718,
686,97.0715,686,-0.000146323,686,0.000381856,686,0.000444871,686,0.00321278,686,0.00402144,
680,97.3524,680,-0.000276456,680,0.000371882,680,0.000421602,680,0.00319583,680,0.00414373,
674,97.63,674,-0.000187775,674,0.000408932,674,0.000409191,674,0.00336722,674,0.00431395,
668,97.9175,668,-2.64116e-05,668,0.000389577,668,0.000399371,668,0.00363582,668,0.00445907,
662,98.2146,662,-0.000201383,662,0.000364057,662,0.000441528,662,0.00364767,662,0.00448763,
656,98.4849,656,-0.000290878,656,0.000440829,656,0.000456921,656,0.00347719,656,0.00436318,
650,98.743,650,-0.000323439,650,0.000420229,650,0.000452489,650,0.00342002,650,0.00428414,
644,98.9346,644,-0.000116081,644,0.000425152,644,0.000500353,644,0.00343584,644,0.00433923,
638,99.0843,638,-0.000346886,638,0.000403828,638,0.000514529,638,0.00350759,638,0.00435738,
632,99.1734,632,-0.000322664,632,0.000431008,632,0.000516059,632,0.00351952,632,0.00436545,
626,99.2061,626,-1.69577e-06,626,0.000351777,626,0.000509787,626,0.00356248,626,0.00428799,
620,99.2651,620,-0.00024046,620,0.000389474,620,0.000532024,620,0.00369148,620,0.00429941,
614,99.3323,614,-7.62178e-05,614,0.000439689,614,0.000545086,614,0.00373531,614,0.00429536,
608,99.4912,608,-5.08665e-05,608,0.000480554,608,0.000603329,608,0.00384606,608,0.00431277,
602,99.6743,602,-0.000315841,602,0.00042922,602,0.000593453,602,0.00392465,602,0.00433552,
596,99.8044,596,-0.000288755,596,0.000460108,596,0.00061896,596,0.00407848,596,0.00431978,
590,99.7845,590,-0.000217912,590,0.000435776,590,0.000620542,590,0.00420136,590,0.00440329,
584,99.7348,584,-0.000246499,584,0.000379732,584,0.00059099,584,0.00419417,584,0.00436276,
578,99.707,578,-0.000236096,578,0.00030336,578,0.000470862,578,0.00417799,578,0.00430114,
572,99.6999,572,-0.000285894,572,0.000199886,572,0.000414943,572,0.00420557,572,0.00430184,
566,99.7909,566,-0.000200796,566,0.000200119,566,0.000482524,566,0.00439317,566,0.00431212,
560,99.8712,560,-4.56001e-05,560,0.000160238,560,0.000366415,560,0.00449904,560,0.00437625,
554,99.9754,554,-0.000150789,554,0.000152236,554,0.000426318,554,0.00468787,554,0.00455057,
548,100.068,548,-0.000370004,548,0.00014338,548,0.000364653,548,0.00489605,548,0.00459595,
542,100.166,542,-0.000106251,542,0.000157053,542,0.000404268,542,0.00508883,542,0.00475677,
536,100.277,536,-0.000211797,536,0.000102857,536,0.000409813,536,0.00543474,536,0.00494373,
530,100.389,530,-0.000143451,530,0.00012497,530,0.000418752,530,0.00571994,530,0.00513196,
524,100.511,524,-0.000164731,524,0.000178779,524,0.00048965,524,0.00606924,524,0.00546805,
518,100.618,518,-5.27874e-05,518,0.000102054,518,0.000390251,518,0.00640522,518,0.00566859,
512,100.716,512,-0.00020923,512,0.000127404,512,0.000403802,512,0.00692269,512,0.0060416,
506,100.811,506,-0.000220797,506,0.00010498,506,0.000433599,506,0.00749929,506,0.00637511,
500,100.908,500,-0.000216175,500,0.000143846,500,0.000454355,500,0.00819886,500,0.00682657,
494,100.999,494,-0.000112358,494,0.000120619,494,0.000427251,494,0.00885554,494,0.00726177,
488,101.115,488,-0.000100623,488,6.92764e-05,488,0.000499757,488,0.00976148,488,0.00789342,
482,101.22,482,-0.000177916,482,0.000123338,482,0.000476796,482,0.0107944,482,0.00858433,
476,101.337,476,-8.34829e-05,476,0.000150216,476,0.000495792,476,0.0120873,476,0.00946814,
470,101.451,470,-2.81642e-05,470,6.80854e-05,470,0.000521242,470,0.0137808,470,0.0104957,
464,101.577,464,-0.000213228,464,0.000124685,464,0.000566729,464,0.0159778,464,0.0120339,
458,101.705,458,-0.000123658,458,0.000151874,458,0.00065655,458,0.018796,458,0.0139583,
452,101.831,452,-0.000103461,452,0.000126109,452,0.000862626,452,0.0222394,452,0.0162701,
446,101.95,446,-8.34125e-05,446,9.27852e-05,446,0.00100933,446,0.0261011,446,0.0189449,
440,102.058,440,-0.000308363,440,0.000154748,440,0.00105515,440,0.0303351,440,0.021816,
434,102.104,434,-0.00062021,434,0.000154023,434,0.0011042,434,0.0352664,434,0.0251786,
428,102.14,428,-5.88985e-05,428,7.71988e-05,428,0.00113723,428,0.0412705,428,0.029288,
422,102.163,422,-0.000221296,422,3.54652e-05,422,0.00120721,422,0.0483542,422,0.0341231,
416,102.144,416,-0.000154559,416,8.68302e-05,416,0.00131464,416,0.0554296,416,0.0388057,
410,102.095,410,-0.000392964,410,8.88497e-05,410,0.0013417,410,0.0615718,410,0.0429789,
404,102.061,404,-0.000280484,404,0.000109382,404,0.0015063,404,0.067606,404,0.0471235,
398,102.038,398,-9.49918e-05,398,0.000183803,398,0.00168152,398,0.074284,398,0.0516734,
392,101.998,392,-0.000265276,392,5.97489e-05,392,0.00184718,392,0.0809808,392,0.0562231,
386,101.956,386,-6.60038e-05,386,0.000136259,386,0.00208504,386,0.0878247,386,0.0609528,
380,101.805,380,-0.000336226,380,8.56392e-05,380,0.00230751,380,0.0952231,380,0.0660652,
374,101.648,374,-0.000258507,374,1.26325e-05,374,0.00255369,374,0.103009,374,0.0716145,
368,101.457,368,-0.000253321,368,5.9257e-05,368,0.00282804,368,0.110632,368,0.0769482,
362,101.252,362,-0.000134148,362,9.118e-05,362,0.00302316,362,0.118278,362,0.0822608,
356,100.98,356,-0.000385063,356,-3.85684e-05,356,0.00317784,356,0.126022,356,0.087774,
350,100.646,350,-0.000186731,350,5.55548e-05,350,0.00351349,350,0.135956,350,0.0947774,
344,100.683,344,-0.000229099,344,-0.000192911,344,0.00344129,344,0.135706,344,0.0947417,
338,100.558,338,-0.00067659,338,-0.000135414,338,0.0034392,338,0.145353,338,0.101802,
332,100.528,332,-0.000263294,332,1.48329e-05,332,0.00361883,332,0.160595,332,0.113086,
[...]
ConcentrationReportSelected Changed: 2024-01-24 1:19:41 PM, Old:ON, New:Choice 0
MCAReportSelected Changed: 2024-01-24 1:19:41 PM, Old:Choice 0, New:Choice 1
MCAReportSelected Changed: 2024-01-24 1:19:41 PM, Old:ON, New:Choice 0
UVVIS Scan Rate nm Changed: 2024-01-24 1:20:57 PM, Old:  602.007, New:  600.000
NIR Scan Rate nm Changed: 2024-01-24 1:20:57 PM, Old:    0.004, New:   12.000
Baseline Correction Changed: 2024-01-24 1:20:57 PM, Old:0, New:2
Sipper Type Changed: 2024-01-24 1:20:57 PM, Old:Internal RSA, New:External sipper
End Method Modifications
<Current Wavelength> , 200.000
<SBW (nm)> , 2.00
<Energy> , 87.10
<Slit Height> , Full

001G_1mg_ml,
001G_1mg_ml
Collection Time: 2024-01-24 1:27:52 PM
Operator Name  :
Scan Version 6.4.0.1610
Parameter List :
Instrument  Cary 7000
Instrument Version  3.07
Method Log     :
Method Name    :
Date/Time stamp: 2024-01-24 1:19:40 PM
Method Modifications:
ConcentrationReportSelected Changed: 2024-01-24 1:19:41 PM, Old:Choice 0, New:Choice 1
ConcentrationReportSelected Changed: 2024-01-24 1:19:41 PM, Old:ON, New:Choice 0
MCAReportSelected Changed: 2024-01-24 1:19:41 PM, Old:Choice 0, New:Choice 1
MCAReportSelected Changed: 2024-01-24 1:19:41 PM, Old:ON, New:Choice 0
UVVIS Scan Rate nm Changed: 2024-01-24 1:20:57 PM, Old:  602.007, New:  600.000
NIR Scan Rate nm Changed: 2024-01-24 1:20:57 PM, Old:    0.004, New:   12.000
Baseline Correction Changed: 2024-01-24 1:20:57 PM, Old:0, New:2
Sipper Type Changed: 2024-01-24 1:20:57 PM, Old:Internal RSA, New:External sipper
End Method Modifications
<Current Wavelength> , 199.000
<SBW (nm)> , 2.00
<Energy> , 87.10
<Slit Height> , Full

005P_1mg_ml,
005P_1mg_ml
Collection Time: 2024-01-24 1:31:22 PM
Operator Name  :
Scan Version 6.4.0.1610
Parameter List :
Instrument  Cary 7000
Instrument Version  3.07
Method Log     :
Method Name    :
Date/Time stamp: 2024-01-24 1:19:40 PM
Method Modifications:
ConcentrationReportSelected Changed: 2024-01-24 1:19:41 PM, Old:Choice 0, New:Choice 1
ConcentrationReportSelected Changed: 2024-01-24 1:19:41 PM, Old:ON, New:Choice 0
MCAReportSelected Changed: 2024-01-24 1:19:41 PM, Old:Choice 0, New:Choice 1
MCAReportSelected Changed: 2024-01-24 1:19:41 PM, Old:ON, New:Choice 0
UVVIS Scan Rate nm Changed: 2024-01-24 1:20:57 PM, Old:  602.007, New:  600.000
NIR Scan Rate nm Changed: 2024-01-24 1:20:57 PM, Old:    0.004, New:   12.000
Baseline Correction Changed: 2024-01-24 1:20:57 PM, Old:0, New:2
Sipper Type Changed: 2024-01-24 1:20:57 PM, Old:Internal RSA, New:External sipper
End Method Modifications
<Current Wavelength> , 199.000
<SBW (nm)> , 2.00
<Energy> , 87.10
<Slit Height> , Full

005P_0.6mg_ml,
005P_0.6mg_ml
Collection Time: 2024-01-24 1:33:11 PM
Operator Name  :
Scan Version 6.4.0.1610
Parameter List :
Instrument  Cary 7000
Instrument Version  3.07
Method Log     :
Method Name    :
Date/Time stamp: 2024-01-24 1:19:40 PM
Method Modifications:
ConcentrationReportSelected Changed: 2024-01-24 1:19:41 PM, Old:Choice 0, New:Choice 1
ConcentrationReportSelected Changed: 2024-01-24 1:19:41 PM, Old:ON, New:Choice 0
MCAReportSelected Changed: 2024-01-24 1:19:41 PM, Old:Choice 0, New:Choice 1
MCAReportSelected Changed: 2024-01-24 1:19:41 PM, Old:ON, New:Choice 0
UVVIS Scan Rate nm Changed: 2024-01-24 1:20:57 PM, Old:  602.007, New:  600.000
NIR Scan Rate nm Changed: 2024-01-24 1:20:57 PM, Old:    0.004, New:   12.000
Baseline Correction Changed: 2024-01-24 1:20:57 PM, Old:0, New:2
Sipper Type Changed: 2024-01-24 1:20:57 PM, Old:Internal RSA, New:External sipper
End Method Modifications
<Current Wavelength> , 200.000
<SBW (nm)> , 2.00
<Energy> , 87.10
<Slit Height> , Full

File: ExpDat_2024_02_16_SL_001H_280C_isotherm_1pt_min_SC.csv
#EXPORTTYPE:                 ,DATA ALL
#FILE:                       ,2024_02_16_SL_001H_280C_isotherm_1pt_min_SCB_with_100C_stabilization.ngb-ss5
#FORMAT:                     ,NETZSCH5
#FTYPE:                      ,ANSI
#IDENTITY:                   ,PS
#DECIMAL:                    ,POINT
#SEPARATOR:                  ,COMMA
#MTYPE:                      ,DSC
#INSTRUMENT:                 ,NETZSCH STA 449F5
#PROJECT:                    ,2024_02_16_SL_005
#DATE/TIME:                  ,2/16/2024 3:54:24 PM (UTC-5)
#CORR. FILE:                 ,
#TEMPCAL:                    ,28-06-2023 13:26
#SENSITIVITY:                ,28-06-2023 13:53
#LABORATORY:                 ,Tran/AAG
#OPERATOR:                   ,Stanley
#REMARK:                     ,
#SAMPLE:                     ,001H_control
#SAMPLE MASS /mg:            ,5.58
#MATERIAL:                   ,
#REFERENCE:                  ,
#REFERENCE MASS /mg:         ,0
#TYPE OF CRUCIBLE:           ,Al2O3 85 µl, open
#SAMPLE CRUCIBLE MASS /mg:   ,0
#REFERENCE CRUCIBLE MASS /mg:,0
#DSC RANGE /µV:              ,5000
#TG RANGE /mg:               ,35000
#TAU-R:                      ,---
#CORR. CODE:                 ,000
#EXO:                        ,-1
#RANGE:                      ,30°C....800°C/0.0....10.0K/min
#SEGMENT:                    ,S1-5/5
#SEG. 1:                     ,30°C/10.0(K/min)/100°C
#SEG. 2:                     ,100°C/00:10/100°C
#SEG. 3:                     ,100°C/10.0(K/min)/350°C
#SEG. 4:                     ,350°C/04:00/350°C
#SEG. 5:                     ,350°C/10.0(K/min)/800°C

##Temp./°C,Time/min,DSC/(mW/mg),Mass/%,Gas Flow(purge2)/(ml/min),Gas Flow(protective)/(ml/min),TIC(scan:1)/A,Sensit./(uV/mW),Segment
 28.63600,  0.00000, 7.404326e-02,    100,50.00000,20.00000,1.111666e-07,0.92329,1
 39.98000,  2.80000,      0.54716,     97.59140,50.00000,20.00000,1.330709e-07,0.92508,1
 66.47200,  5.60000,      1.15951,     99.64731,50.00000,20.00000,1.296257e-07,0.92602,1
 97.33100,  8.40000,      0.97376,     99.37348,50.00000,20.00000,1.254747e-07,0.92167,2
108.752, 11.20000,      0.25421,     97.49409,50.00000,20.00000,1.190079e-07,0.91865,2
109.844, 14.00000,     -0.12209,     95.88441,50.00000,20.00000,1.149483e-07,0.91833,2
106.882, 16.80000,     -0.22610,     94.78746,50.00000,20.00000,1.121377e-07,0.91920,2
114.605, 19.60000,      0.77981,     96.82509,50.00000,20.00000,1.097425e-07,0.91683,3
140.215, 22.40000,      1.62554,     98.25842,50.00000,20.00000,1.072489e-07,0.90673,3
173.475, 25.20000,      2.12791,     98.70054,50.00000,20.00000,1.055786e-07,0.88889,3
206.364, 28.00000,      2.03518,     98.59713,50.00000,20.00000,1.041389e-07,0.86678,3
236.773, 30.80000,      1.81237,     98.48351,50.00000,20.00000,1.027812e-07,0.84313,3
265.501, 33.60000,      1.72136,     98.29086,50.00000,20.00000,1.015248e-07,0.81861,3
293.457, 36.40000,      1.77045,     96.98530,50.00000,20.00000,1.004107e-07,0.79328,3
321.17, 39.20000,      1.92577,     93.29534,50.00000,20.00000,9.954844e-08,0.76728,3
348.878, 42.00000,      2.26014,     86.15878,50.00000,20.00000,9.885879e-08,0.74088,4
355.288, 44.80000,      0.36398,     75.91219,50.00000,20.00000,9.887550e-08,0.73477,4
354.184, 47.60000,-6.540747e-02,     67.95269,50.00000,20.00000,9.851107e-08,0.73582,4
352.557, 50.40000,     -0.13035,     61.94731,50.00000,20.00000,9.783503e-08,0.73737,4
351.322, 53.20000,     -0.13181,     57.17079,50.00000,20.00000,9.713662e-08,0.73855,4
350.703, 56.00000,     -0.13448,     53.14839,50.00000,20.00000,9.686817e-08,0.73914,4
350.36, 58.80000,     -0.13627,     49.70986,50.00000,20.00000,9.665459e-08,0.73947,4
350.19, 61.60000,     -0.14049,     46.66272,50.00000,20.00000,9.628810e-08,0.73963,4
350.113, 64.40000,     -0.14695,     43.95806,50.00000,20.00000,9.616214e-08,0.73970,4
350.079, 67.20000,     -0.15544,     41.50699,50.00000,20.00000,9.591934e-08,0.73974,4
350.048, 70.00000,     -0.16061,     39.27276,50.00000,20.00000,9.565997e-08,0.73977,4
350.032, 72.80000,     -0.16412,     37.23925,50.00000,20.00000,9.556979e-08,0.73978,4
350.024, 75.60000,     -0.16116,     35.38817,50.00000,20.00000,9.545284e-08,0.73979,4
350.016, 78.40000,     -0.16061,     33.66487,50.00000,20.00000,9.523080e-08,0.73980,4
350.024, 81.20000,     -0.15340,     32.07939,50.00000,20.00000,9.507450e-08,0.73979,4
350.029, 84.00000,     -0.14934,     30.61756,50.00000,20.00000,9.479218e-08,0.73978,4
350.036, 86.80000,     -0.14804,     29.24516,50.00000,20.00000,9.460408e-08,0.73978,4
350.022, 89.60000,     -0.15081,     27.98602,50.00000,20.00000,9.476643e-08,0.73979,4
350.019, 92.40000,     -0.15044,     26.77563,50.00000,20.00000,9.462537e-08,0.73979,4
350.029, 95.20000,     -0.14989,     25.68082,50.00000,20.00000,9.446206e-08,0.73978,4
350.034, 98.00000,     -0.15118,     24.62061,50.00000,20.00000,9.453443e-08,0.73978,4
350.019,100.8,     -0.15007,     23.61093,50.00000,20.00000,9.365795e-08,0.73979,4
350.039,103.6,     -0.14952,     22.69659,50.00000,20.00000,9.462484e-08,0.73978,4
350.038,106.4,     -0.14952,     21.79032,50.00000,20.00000,9.434014e-08,0.73978,4
350.027,109.2,     -0.15026,     20.96918,50.00000,20.00000,9.438293e-08,0.73979,4
350.023,112,     -0.14786,     20.19462,50.00000,20.00000,9.417498e-08,0.73979,4
350.02,114.8,     -0.14545,     19.48513,50.00000,20.00000,9.421849e-08,0.73979,4
350.034,117.6,     -0.14472,     18.80179,50.00000,20.00000,9.419453e-08,0.73978,4
350.034,120.4,     -0.14305,     18.11452,50.00000,20.00000,9.412988e-08,0.73978,4
350.031,123.2,     -0.14361,     17.52043,50.00000,20.00000,9.386753e-08,0.73978,4
350.047,126,     -0.14324,     16.90412,50.00000,20.00000,9.395849e-08,0.73977,4
350.042,128.8,     -0.14231,     16.33853,50.00000,20.00000,9.381579e-08,0.73977,4
350.026,131.6,     -0.13935,     15.78297,50.00000,20.00000,9.383191e-08,0.73979,4
350.031,134.4,     -0.13991,     15.29032,50.00000,20.00000,9.394615e-08,0.73978,4
350.039,137.2,     -0.13788,     14.79355,50.00000,20.00000,9.400295e-08,0.73978,4
350.026,140,     -0.13917,     14.32724,50.00000,20.00000,9.415155e-08,0.73979,4
350.029,142.8,     -0.13788,     13.88746,50.00000,20.00000,9.501816e-08,0.73978,4
350.025,145.6,     -0.13436,     13.45753,50.00000,20.00000,9.464756e-08,0.73979,4
350.024,148.4,     -0.13362,     13.05412,50.00000,20.00000,9.436953e-08,0.73979,4
350.029,151.2,     -0.13326,     12.67294,50.00000,20.00000,9.450191e-08,0.73978,4
350.036,154,     -0.13178,     12.29982,50.00000,20.00000,9.426221e-08,0.73978,4
350.037,156.8,     -0.13769,     11.95932,50.00000,20.00000,9.382151e-08,0.73978,4
350.025,159.6,     -0.13510,     11.66129,50.00000,20.00000,9.394142e-08,0.73979,4
350.032,162.4,     -0.13732,     11.33889,50.00000,20.00000,9.424872e-08,0.73978,4
350.038,165.2,     -0.13603,     11.04695,50.00000,20.00000,9.393894e-08,0.73978,4
350.037,168,     -0.13991,     10.75305,50.00000,20.00000,9.411501e-08,0.73978,4
350.043,170.8,     -0.14379,     10.49140,50.00000,20.00000,9.419998e-08,0.73977,4
350.027,173.6,     -0.15248,     10.19140,50.00000,20.00000,9.409284e-08,0.73979,4
350.029,176.4,     -0.16708,      9.93387,50.00000,20.00000,9.454043e-08,0.73978,4
350.043,179.2,     -0.18575,      9.65412,50.00000,20.00000,9.422511e-08,0.73977,4
350.045,182,     -0.20257,      9.41075,50.00000,20.00000,9.446540e-08,0.73977,4
[...]
350.028,207.2,     -0.30033,      7.50914,50.00000,20.00000,9.391894e-08,0.73979,4
350.034,210,     -0.30181,      7.30842,50.00000,20.00000,9.439865e-08,0.73978,4
350.044,212.8,     -0.30163,      7.12993,50.00000,20.00000,9.413288e-08,0.73977,4
350.024,215.6,     -0.30236,      6.95968,50.00000,20.00000,9.432912e-08,0.73979,4
350.03,218.4,     -0.29996,      6.80161,50.00000,20.00000,9.424728e-08,0.73978,4
350.033,221.2,     -0.29923,      6.61093,50.00000,20.00000,9.379422e-08,0.73978,4
350.039,224,     -0.29664,      6.45896,50.00000,20.00000,9.392954e-08,0.73978,4
350.035,226.8,     -0.29886,      6.31093,50.00000,20.00000,9.394023e-08,0.73978,4
350.032,229.6,     -0.29627,      6.15878,50.00000,20.00000,9.422174e-08,0.73978,4
350.024,232.4,     -0.29627,      6.01290,50.00000,20.00000,9.823411e-08,0.73979,4
350.028,235.2,     -0.29423,      5.84265,50.00000,20.00000,9.360776e-08,0.73979,4
350.034,238,     -0.29368,      5.70072,50.00000,20.00000,9.436223e-08,0.73978,4
350.021,240.8,     -0.29054,      5.57903,50.00000,20.00000,9.385100e-08,0.73979,4
350.029,243.6,     -0.29128,      5.42079,50.00000,20.00000,9.373147e-08,0.73978,4
350.036,246.4,     -0.28629,      5.28710,50.00000,20.00000,9.364505e-08,0.73978,4
350.028,249.2,     -0.28629,      5.16541,50.00000,20.00000,1.097929e-07,0.73979,4
350.022,252,     -0.28610,      5.04785,50.00000,20.00000,9.331902e-08,0.73979,4
350.031,254.8,     -0.28296,      4.89982,50.00000,20.00000,9.393595e-08,0.73978,4
350.039,257.6,     -0.28296,      4.77814,50.00000,20.00000,7.479306e-08,0.73978,4
350.033,260.4,     -0.28185,      4.67079,50.00000,20.00000,9.348064e-08,0.73978,4
350.023,263.2,     -0.27704,      4.54301,50.00000,20.00000,9.417715e-08,0.73979,4
350.022,266,     -0.27778,      4.41523,50.00000,20.00000,9.383937e-08,0.73979,4
350.031,268.8,     -0.27298,      4.34032,50.00000,20.00000,9.405350e-08,0.73978,4
350.033,271.6,     -0.27335,      4.24301,50.00000,20.00000,9.239940e-08,0.73978,4
350.038,274.4,     -0.27169,      4.11720,50.00000,20.00000,9.354665e-08,0.73978,4
350.017,277.2,     -0.27168,      4.00161,50.00000,20.00000,1.012277e-07,0.73980,4
350.02,280,     -0.26836,      3.91452,50.00000,20.00000,9.317355e-08,0.73979,4
353.814,282.8,      1.24419,      4.03208,50.00000,20.00000,9.274381e-08,0.73617,5
379.069,285.6,      2.64288,      4.50448,50.00000,20.00000,8.197388e-08,0.71217,5
408.651,288.4,      3.30408,      3.85358,50.00000,20.00000,9.525920e-08,0.68457,5
438.1,291.2,      4.08118,      1.15717,50.00000,20.00000,9.223638e-08,0.65801,5
466.829,294,      4.76325,     -0.40591,50.00000,20.00000,9.464198e-08,0.63328,5
495.121,296.8,      4.91771,-8.763441e-02,50.00000,20.00000,9.458062e-08,0.61028,5
523.193,299.6,      4.94178,      0.26720,50.00000,20.00000,9.354119e-08,0.58891,5
551.174,302.4,      4.75911,      0.57133,50.00000,20.00000,9.337124e-08,0.56911,5
579.165,305.2,      4.24955,      0.88154,50.00000,20.00000,9.417166e-08,0.55080,5
607.119,308,      3.08177,      1.13495,50.00000,20.00000,9.465139e-08,0.53395,5
635.107,310.8,      0.81258,      1.34176,50.00000,20.00000,9.496524e-08,0.51842,5
663.1,313.6,     -2.26540,      1.54857,50.00000,20.00000,9.516491e-08,0.50408,5
691.081,316.4,     -4.69440,      1.73710,50.00000,20.00000,9.859673e-08,0.49077,5
719.073,319.2,     -5.69413,      1.87688,50.00000,20.00000,9.365259e-08,0.47827,5
747.022,322,     -5.72401,      2.02903,50.00000,20.00000,8.452972e-08,0.46641,5
774.995,324.8,     -5.58903,      2.16272,50.00000,20.00000,9.896730e-08,0.45495,5
795.967,326.9,     -5.62418,      2.23891,50.00000,20.00000,9.666281e-08,0.44650,5